imagefile,correctkey,trials.thisRepN,trials.thisTrialN,trials.thisN,trials.thisIndex,resp_key_image.keys,resp_key_image.corr,resp_key_image.rt,date,participant
stimuli/night.png,left,0,0,0,0,left,1,2.650599003,2018_Jul_03_1218,3
stimuli/day.png,right,0,1,1,1,right,1,1.53629899,2018_Jul_03_1218,3
stimuli/day.png,right,0,2,2,2,left,0,1.236159086,2018_Jul_03_1218,3
stimuli/night.png,left,0,3,3,3,right,0,1.368772984,2018_Jul_03_1218,3
stimuli/day.png,right,0,4,4,4,left,0,1.303060055,2018_Jul_03_1218,3
stimuli/night.png,left,0,5,5,5,right,0,1.103079081,2018_Jul_03_1218,3
stimuli/night.png,left,0,6,6,6,left,1,1.253091812,2018_Jul_03_1218,3
stimuli/day.png,right,0,7,7,7,right,1,1.302819967,2018_Jul_03_1218,3
stimuli/day.png,right,0,8,8,8,left,0,1.169646978,2018_Jul_03_1218,3
stimuli/night.png,left,0,9,9,9,right,0,1.153202057,2018_Jul_03_1218,3
stimuli/day.png,right,0,10,10,10,left,0,1.286328077,2018_Jul_03_1218,3
stimuli/night.png,left,0,11,11,11,right,0,1.053034067,2018_Jul_03_1218,3
stimuli/night.png,left,0,12,12,12,left,1,1.669636965,2018_Jul_03_1218,3
stimuli/day.png,right,0,13,13,13,left,0,1.603010893,2018_Jul_03_1218,3
stimuli/night.png,left,0,14,14,14,right,0,1.468527079,2018_Jul_03_1218,3
stimuli/day.png,right,0,15,15,15,left,0,1.536238909,2018_Jul_03_1218,3
stimuli/night.png,left,0,0,0,0,right,0,2.354205132,2018_Jul_03_1234,4
stimuli/day.png,right,0,1,1,1,right,1,1.669785023,2018_Jul_03_1234,4
stimuli/day.png,right,0,2,2,2,right,1,1.76966095,2018_Jul_03_1234,4
stimuli/night.png,left,0,3,3,3,left,1,1.519721031,2018_Jul_03_1234,4
stimuli/day.png,right,0,4,4,4,right,1,1.25037384,2018_Jul_03_1234,4
stimuli/night.png,left,0,5,5,5,left,1,2.68640089,2018_Jul_03_1234,4
stimuli/night.png,left,0,6,6,6,left,1,1.486238003,2018_Jul_03_1234,4
stimuli/day.png,right,0,7,7,7,right,1,1.002907991,2018_Jul_03_1234,4
stimuli/day.png,right,0,8,8,8,left,0,1.136313915,2018_Jul_03_1234,4
stimuli/night.png,left,0,9,9,9,left,1,2.469876051,2018_Jul_03_1234,4
stimuli/day.png,right,0,10,10,10,right,1,2.069581032,2018_Jul_03_1234,4
stimuli/night.png,left,0,11,11,11,left,1,1.11947608,2018_Jul_03_1234,4
stimuli/night.png,left,0,12,12,12,right,0,0.852971792,2018_Jul_03_1234,4
stimuli/day.png,right,0,13,13,13,left,0,1.252830029,2018_Jul_03_1234,4
stimuli/night.png,left,0,14,14,14,left,1,1.883924007,2018_Jul_03_1234,4
stimuli/day.png,right,0,15,15,15,right,1,0.886183023,2018_Jul_03_1234,4
stimuli/night.png,left,0,0,0,0,left,1,3.520549059,2018_Jul_03_1247,5
stimuli/day.png,right,0,1,1,1,right,1,1.602972984,2018_Jul_03_1247,5
stimuli/day.png,right,0,2,2,2,left,0,2.019643068,2018_Jul_03_1247,5
stimuli/night.png,left,0,3,3,3,left,1,2.136341095,2018_Jul_03_1247,5
stimuli/day.png,right,0,4,4,4,right,1,1.23390317,2018_Jul_03_1247,5
stimuli/night.png,left,0,5,5,5,left,1,1.219588995,2018_Jul_03_1247,5
stimuli/night.png,left,0,6,6,6,right,0,0.802886009,2018_Jul_03_1247,5
stimuli/day.png,right,0,7,7,7,left,0,1.386245012,2018_Jul_03_1247,5
stimuli/day.png,right,0,8,8,8,right,1,1.669611931,2018_Jul_03_1247,5
stimuli/night.png,left,0,9,9,9,left,1,0.919592142,2018_Jul_03_1247,5
stimuli/day.png,right,0,10,10,10,right,1,1.317049026,2018_Jul_03_1247,5
stimuli/night.png,left,0,11,11,11,left,1,1.352921009,2018_Jul_03_1247,5
stimuli/night.png,left,0,12,12,12,right,0,0.869610071,2018_Jul_03_1247,5
stimuli/day.png,right,0,13,13,13,right,1,2.286244154,2018_Jul_03_1247,5
stimuli/night.png,left,0,14,14,14,left,1,1.050385952,2018_Jul_03_1247,5
stimuli/day.png,right,0,15,15,15,right,1,1.052856922,2018_Jul_03_1247,5
stimuli/night.png,left,0,0,0,0,left,1,4.469677925,2018_Jul_05_1405,8
stimuli/day.png,right,0,1,1,1,right,1,2.036188126,2018_Jul_05_1405,8
stimuli/day.png,right,0,2,2,2,left,0,6.452901125,2018_Jul_05_1405,8
stimuli/night.png,left,0,3,3,3,right,0,1.719489098,2018_Jul_05_1405,8
stimuli/day.png,right,0,4,4,4,NA,NA,NA,2018_Jul_05_1405,8
stimuli/night.png,left,0,5,5,5,left,1,2.152871847,2018_Jul_05_1405,8
stimuli/night.png,left,0,6,6,6,right,0,10.402915,2018_Jul_05_1405,8
stimuli/day.png,right,0,7,7,7,right,1,2.452969074,2018_Jul_05_1405,8
stimuli/day.png,right,0,8,8,8,left,0,7.952949047,2018_Jul_05_1405,8
stimuli/night.png,left,0,9,9,9,right,0,4.636346817,2018_Jul_05_1405,8
stimuli/day.png,right,0,10,10,10,left,0,2.23614502,2018_Jul_05_1405,8
stimuli/night.png,left,0,11,11,11,right,0,1.052941084,2018_Jul_05_1405,8
stimuli/night.png,left,0,12,12,12,right,0,2.836144924,2018_Jul_05_1405,8
stimuli/day.png,right,0,13,13,13,left,0,1.66961503,2018_Jul_05_1405,8
stimuli/night.png,left,0,14,14,14,right,0,1.386170864,2018_Jul_05_1405,8
stimuli/day.png,right,0,15,15,15,left,0,1.235947132,2018_Jul_05_1405,8
stimuli/night.png,left,0,0,0,0,left,1,4.304033995,2018_Jul_05_1436,9
stimuli/day.png,right,0,1,1,1,left,0,8.503221989,2018_Jul_05_1436,9
stimuli/day.png,right,0,2,2,2,right,1,3.286313057,2018_Jul_05_1436,9
stimuli/night.png,left,0,3,3,3,left,1,1.503172874,2018_Jul_05_1436,9
stimuli/day.png,right,0,4,4,4,right,1,1.13635397,2018_Jul_05_1436,9
stimuli/night.png,left,0,5,5,5,left,1,1.152801991,2018_Jul_05_1436,9
stimuli/night.png,left,0,6,6,6,right,0,2.969558001,2018_Jul_05_1436,9
stimuli/day.png,right,0,7,7,7,right,1,1.519551039,2018_Jul_05_1436,9
stimuli/day.png,right,0,8,8,8,right,1,2.886398792,2018_Jul_05_1436,9
stimuli/night.png,left,0,9,9,9,left,1,4.1863029,2018_Jul_05_1436,9
stimuli/day.png,right,0,10,10,10,right,1,1.367161036,2018_Jul_05_1436,9
stimuli/night.png,left,0,11,11,11,right,0,2.452912092,2018_Jul_05_1436,9
stimuli/night.png,left,0,12,12,12,left,1,2.002829075,2018_Jul_05_1436,9
stimuli/day.png,right,0,13,13,13,right,1,1.46950984,2018_Jul_05_1436,9
stimuli/night.png,left,0,14,14,14,left,1,1.033774137,2018_Jul_05_1436,9
stimuli/day.png,right,0,15,15,15,right,1,1.402914047,2018_Jul_05_1436,9
stimuli/night.png,left,0,0,0,0,left,1,2.321630001,2018_Jul_05_1608,11
stimuli/day.png,right,0,1,1,1,right,1,1.036401987,2018_Jul_05_1608,11
stimuli/day.png,right,0,2,2,2,left,0,0.852896929,2018_Jul_05_1608,11
stimuli/night.png,left,0,3,3,3,right,0,0.886307955,2018_Jul_05_1608,11
stimuli/day.png,right,0,4,4,4,left,0,1.033776999,2018_Jul_05_1608,11
stimuli/night.png,left,0,5,5,5,left,1,1.419765949,2018_Jul_05_1608,11
stimuli/night.png,left,0,6,6,6,right,0,0.769580126,2018_Jul_05_1608,11
stimuli/day.png,right,0,7,7,7,left,0,0.686414003,2018_Jul_05_1608,11
stimuli/day.png,right,0,8,8,8,right,1,0.569636106,2018_Jul_05_1608,11
stimuli/night.png,left,0,9,9,9,left,1,0.386337996,2018_Jul_05_1608,11
stimuli/day.png,right,0,10,10,10,right,1,0.769601822,2018_Jul_05_1608,11
stimuli/night.png,left,0,11,11,11,left,1,0.286211967,2018_Jul_05_1608,11
stimuli/night.png,left,0,12,12,12,right,0,0.836276054,2018_Jul_05_1608,11
stimuli/day.png,right,0,13,13,13,left,0,0.719624996,2018_Jul_05_1608,11
stimuli/night.png,left,0,14,14,14,right,0,0.536220074,2018_Jul_05_1608,11
stimuli/day.png,right,0,15,15,15,right,1,0.769562006,2018_Jul_05_1608,11
stimuli/night.png,left,0,0,0,0,left,1,9.248364925,2018_Jul_08_1247,12
stimuli/day.png,right,0,1,1,1,right,1,1.849724054,2018_Jul_08_1247,12
stimuli/day.png,right,0,2,2,2,left,0,6.652090073,2018_Jul_08_1247,12
stimuli/night.png,left,0,3,3,3,right,0,1.404798985,2018_Jul_08_1247,12
stimuli/day.png,right,0,4,4,4,left,0,1.145280838,2018_Jul_08_1247,12
stimuli/night.png,left,0,5,5,5,right,0,1.165521145,2018_Jul_08_1247,12
stimuli/night.png,left,0,6,6,6,left,1,1.317596912,2018_Jul_08_1247,12
stimuli/day.png,right,0,7,7,7,left,0,2.06851387,2018_Jul_08_1247,12
stimuli/day.png,right,0,8,8,8,left,0,3.046007156,2018_Jul_08_1247,12
stimuli/night.png,left,0,9,9,9,right,0,1.697422981,2018_Jul_08_1247,12
stimuli/day.png,right,0,10,10,10,left,0,1.084681034,2018_Jul_08_1247,12
stimuli/night.png,left,0,11,11,11,right,0,1.264199018,2018_Jul_08_1247,12
stimuli/night.png,left,0,12,12,12,right,0,1.514420033,2018_Jul_08_1247,12
stimuli/day.png,right,0,13,13,13,left,0,1.527872086,2018_Jul_08_1247,12
stimuli/night.png,left,0,14,14,14,right,0,1.714184999,2018_Jul_08_1247,12
stimuli/day.png,right,0,15,15,15,left,0,1.401257038,2018_Jul_08_1247,12
stimuli/night.png,left,0,0,0,0,left,1,4.583990812,2018_Jul_08_1328,14
stimuli/day.png,right,0,1,1,1,right,1,2.59969902,2018_Jul_08_1328,14
stimuli/day.png,right,0,2,2,2,right,1,2.468416929,2018_Jul_08_1328,14
stimuli/night.png,left,0,3,3,3,NA,NA,NA,2018_Jul_08_1328,14
stimuli/day.png,right,0,4,4,4,left,0,2.468651056,2018_Jul_08_1328,14
stimuli/night.png,left,0,5,5,5,right,0,3.018329144,2018_Jul_08_1328,14
stimuli/night.png,left,0,6,6,6,left,1,4.335246801,2018_Jul_08_1328,14
stimuli/day.png,right,0,7,7,7,right,1,3.685137033,2018_Jul_08_1328,14
stimuli/day.png,right,0,8,8,8,right,1,2.634830952,2018_Jul_08_1328,14
stimuli/night.png,left,0,9,9,9,left,1,2.168510914,2018_Jul_08_1328,14
stimuli/day.png,right,0,10,10,10,right,1,2.918689966,2018_Jul_08_1328,14
stimuli/night.png,left,0,11,11,11,left,1,2.485057116,2018_Jul_08_1328,14
stimuli/night.png,left,0,12,12,12,left,1,3.951765776,2018_Jul_08_1328,14
stimuli/day.png,right,0,13,13,13,right,1,8.018831015,2018_Jul_08_1328,14
stimuli/night.png,left,0,14,14,14,left,1,4.352046013,2018_Jul_08_1328,14
stimuli/day.png,right,0,15,15,15,right,1,5.502049923,2018_Jul_08_1328,14
stimuli/night.png,left,0,0,0,0,left,1,2.667379141,2018_Jul_08_1449,16
stimuli/day.png,right,0,1,1,1,right,1,1.400033951,2018_Jul_08_1449,16
stimuli/day.png,right,0,2,2,2,right,1,2.218556881,2018_Jul_08_1449,16
stimuli/night.png,left,0,3,3,3,left,1,2.651725054,2018_Jul_08_1449,16
stimuli/day.png,right,0,4,4,4,right,1,1.851464987,2018_Jul_08_1449,16
stimuli/night.png,left,0,5,5,5,left,1,1.252017975,2018_Jul_08_1449,16
stimuli/night.png,left,0,6,6,6,right,0,1.251191139,2018_Jul_08_1449,16
stimuli/day.png,right,0,7,7,7,left,0,1.851873159,2018_Jul_08_1449,16
stimuli/day.png,right,0,8,8,8,left,0,1.601687908,2018_Jul_08_1449,16
stimuli/night.png,left,0,9,9,9,right,0,2.051903009,2018_Jul_08_1449,16
stimuli/day.png,right,0,10,10,10,left,0,1.802153111,2018_Jul_08_1449,16
stimuli/night.png,left,0,11,11,11,right,0,1.98496294,2018_Jul_08_1449,16
stimuli/night.png,left,0,12,12,12,left,1,1.218286037,2018_Jul_08_1449,16
stimuli/day.png,right,0,13,13,13,left,0,1.668401957,2018_Jul_08_1449,16
stimuli/night.png,left,0,14,14,14,right,0,4.034159184,2018_Jul_08_1449,16
stimuli/day.png,right,0,15,15,15,left,0,1.468242168,2018_Jul_08_1449,16
stimuli/night.png,left,0,0,0,0,right,0,2.882862091,2018_Jul_08_1519,17
stimuli/day.png,right,0,1,1,1,left,0,14.08551288,2018_Jul_08_1519,17
stimuli/day.png,right,0,2,2,2,left,0,1.868433952,2018_Jul_08_1519,17
stimuli/night.png,left,0,3,3,3,right,0,1.134819031,2018_Jul_08_1519,17
stimuli/day.png,right,0,4,4,4,left,0,1.068515062,2018_Jul_08_1519,17
stimuli/night.png,left,0,5,5,5,right,0,1.333046913,2018_Jul_08_1519,17
stimuli/night.png,left,0,6,6,6,left,1,1.084959984,2018_Jul_08_1519,17
stimuli/day.png,right,0,7,7,7,left,0,1.268203974,2018_Jul_08_1519,17
stimuli/day.png,right,0,8,8,8,left,0,1.484831095,2018_Jul_08_1519,17
stimuli/night.png,left,0,9,9,9,right,0,1.13514781,2018_Jul_08_1519,17
stimuli/day.png,right,0,10,10,10,left,0,1.501894951,2018_Jul_08_1519,17
stimuli/night.png,left,0,11,11,11,right,0,1.917999029,2018_Jul_08_1519,17
stimuli/night.png,left,0,12,12,12,right,0,1.401403904,2018_Jul_08_1519,17
stimuli/day.png,right,0,13,13,13,left,0,1.351152897,2018_Jul_08_1519,17
stimuli/night.png,left,0,14,14,14,right,0,1.735002041,2018_Jul_08_1519,17
stimuli/day.png,right,0,15,15,15,left,0,1.868404865,2018_Jul_08_1519,17
stimuli/night.png,left,0,0,0,0,right,0,3.335021973,2018_Jul_08_1557,18
stimuli/day.png,right,0,1,1,1,left,0,1.350969076,2018_Jul_08_1557,18
stimuli/day.png,right,0,2,2,2,right,1,2.018706083,2018_Jul_08_1557,18
stimuli/night.png,left,0,3,3,3,left,1,2.268207073,2018_Jul_08_1557,18
stimuli/day.png,right,0,4,4,4,right,1,2.73527503,2018_Jul_08_1557,18
stimuli/night.png,left,0,5,5,5,left,1,0.968370914,2018_Jul_08_1557,18
stimuli/night.png,left,0,6,6,6,right,0,1.934919119,2018_Jul_08_1557,18
stimuli/day.png,right,0,7,7,7,left,0,0.084760904,2018_Jul_08_1557,18
stimuli/day.png,right,0,8,8,8,left,0,1.701756001,2018_Jul_08_1557,18
stimuli/night.png,left,0,9,9,9,left,1,3.566926003,2018_Jul_08_1557,18
stimuli/day.png,right,0,10,10,10,right,1,2.985304832,2018_Jul_08_1557,18
stimuli/night.png,left,0,11,11,11,left,1,3.318407059,2018_Jul_08_1557,18
stimuli/night.png,left,0,12,12,12,left,1,2.851945162,2018_Jul_08_1557,18
stimuli/day.png,right,0,13,13,13,right,1,3.868495941,2018_Jul_08_1557,18
stimuli/night.png,left,0,14,14,14,left,1,4.902070045,2018_Jul_08_1557,18
stimuli/day.png,right,0,15,15,15,right,1,2.884930134,2018_Jul_08_1557,18
stimuli/night.png,left,0,0,0,0,left,1,2.500797033,2018_Jul_08_1637,19
stimuli/day.png,right,0,1,1,1,right,1,1.268084049,2018_Jul_08_1637,19
stimuli/day.png,right,0,2,2,2,left,0,7.252156973,2018_Jul_08_1637,19
stimuli/night.png,left,0,3,3,3,right,0,1.835029125,2018_Jul_08_1637,19
stimuli/day.png,right,0,4,4,4,right,1,2.919099092,2018_Jul_08_1637,19
stimuli/night.png,left,0,5,5,5,left,1,1.568303108,2018_Jul_08_1637,19
stimuli/night.png,left,0,6,6,6,right,0,3.435392857,2018_Jul_08_1637,19
stimuli/day.png,right,0,7,7,7,left,0,1.401493073,2018_Jul_08_1637,19
stimuli/day.png,right,0,8,8,8,left,0,2.068109989,2018_Jul_08_1637,19
stimuli/night.png,left,0,9,9,9,right,0,1.983690977,2018_Jul_08_1637,19
stimuli/day.png,right,0,10,10,10,right,1,3.833840132,2018_Jul_08_1637,19
stimuli/night.png,left,0,11,11,11,left,1,1.618211031,2018_Jul_08_1637,19
stimuli/night.png,left,0,12,12,12,left,1,2.835305929,2018_Jul_08_1637,19
stimuli/day.png,right,0,13,13,13,left,0,2.935051203,2018_Jul_08_1637,19
stimuli/night.png,left,0,14,14,14,right,0,3.38538909,2018_Jul_08_1637,19
stimuli/day.png,right,0,15,15,15,right,1,4.118707895,2018_Jul_08_1637,19
stimuli/night.png,left,0,0,0,0,left,1,7.636070013,2018_Jul_08_1721,20
stimuli/day.png,right,0,1,1,1,NA,NA,NA,2018_Jul_08_1721,20
stimuli/day.png,right,0,2,2,2,NA,NA,NA,2018_Jul_08_1721,20
stimuli/night.png,left,0,3,3,3,right,0,3.935266972,2018_Jul_08_1721,20
stimuli/day.png,right,0,4,4,4,right,1,2.135231018,2018_Jul_08_1721,20
stimuli/night.png,left,0,5,5,5,NA,NA,NA,2018_Jul_08_1721,20
stimuli/night.png,left,0,6,6,6,NA,NA,NA,2018_Jul_08_1721,20
stimuli/day.png,right,0,7,7,7,NA,NA,NA,2018_Jul_08_1721,20
stimuli/day.png,right,0,8,8,8,NA,NA,NA,2018_Jul_08_1721,20
stimuli/night.png,left,0,9,9,9,NA,NA,NA,2018_Jul_08_1721,20
stimuli/day.png,right,0,10,10,10,NA,NA,NA,2018_Jul_08_1721,20
stimuli/night.png,left,0,11,11,11,NA,NA,NA,2018_Jul_08_1721,20
stimuli/night.png,left,0,12,12,12,NA,NA,NA,2018_Jul_08_1721,20
stimuli/day.png,right,0,13,13,13,NA,NA,NA,2018_Jul_08_1721,20
stimuli/night.png,left,0,14,14,14,NA,NA,NA,2018_Jul_08_1721,20
stimuli/day.png,right,0,15,15,15,NA,NA,NA,2018_Jul_08_1721,20
stimuli/night.png,left,0,0,0,0,NA,NA,NA,2018_Jul_08_1737,21
stimuli/day.png,right,0,1,1,1,right,1,2.201349974,2018_Jul_08_1737,21
stimuli/day.png,right,0,2,2,2,NA,NA,NA,2018_Jul_08_1737,21
stimuli/night.png,left,0,3,3,3,NA,NA,NA,2018_Jul_08_1737,21
stimuli/day.png,right,0,4,4,4,NA,NA,NA,2018_Jul_08_1737,21
stimuli/night.png,left,0,5,5,5,right,0,7.068713188,2018_Jul_08_1737,21
stimuli/night.png,left,0,6,6,6,right,0,1.985141993,2018_Jul_08_1737,21
stimuli/day.png,right,0,7,7,7,NA,NA,NA,2018_Jul_08_1737,21
stimuli/day.png,right,0,8,8,8,NA,NA,NA,2018_Jul_08_1737,21
stimuli/night.png,left,0,9,9,9,right,0,1.435101986,2018_Jul_08_1737,21
stimuli/day.png,right,0,10,10,10,NA,NA,NA,2018_Jul_08_1737,21
stimuli/night.png,left,0,11,11,11,right,0,3.035388947,2018_Jul_08_1737,21
stimuli/night.png,left,0,12,12,12,right,0,6.818989992,2018_Jul_08_1737,21
stimuli/day.png,right,0,13,13,13,NA,NA,NA,2018_Jul_08_1737,21
stimuli/night.png,left,0,14,14,14,right,0,7.302412987,2018_Jul_08_1737,21
stimuli/day.png,right,0,15,15,15,NA,NA,NA,2018_Jul_08_1737,21
stimuli/night.png,left,0,0,0,0,right,0,3.051461935,2018_Jul_11_1147,22
stimuli/day.png,right,0,1,1,1,NA,NA,NA,2018_Jul_11_1147,22
stimuli/day.png,right,0,2,2,2,NA,NA,NA,2018_Jul_11_1147,22
stimuli/night.png,left,0,3,3,3,right,0,2.002025127,2018_Jul_11_1147,22
stimuli/day.png,right,0,4,4,4,NA,NA,NA,2018_Jul_11_1147,22
stimuli/night.png,left,0,5,5,5,right,0,2.600516081,2018_Jul_11_1147,22
stimuli/night.png,left,0,6,6,6,right,0,3.31863308,2018_Jul_11_1147,22
stimuli/day.png,right,0,7,7,7,NA,NA,NA,2018_Jul_11_1147,22
stimuli/day.png,right,0,8,8,8,NA,NA,NA,2018_Jul_11_1147,22
stimuli/night.png,left,0,9,9,9,right,0,1.484557867,2018_Jul_11_1147,22
stimuli/day.png,right,0,10,10,10,NA,NA,NA,2018_Jul_11_1147,22
stimuli/night.png,left,0,11,11,11,right,0,1.368394136,2018_Jul_11_1147,22
stimuli/night.png,left,0,12,12,12,right,0,1.818439007,2018_Jul_11_1147,22
stimuli/day.png,right,0,13,13,13,NA,NA,NA,2018_Jul_11_1147,22
stimuli/night.png,left,0,14,14,14,right,0,1.118363142,2018_Jul_11_1147,22
stimuli/day.png,right,0,15,15,15,NA,NA,NA,2018_Jul_11_1147,22
stimuli/night.png,left,0,0,0,0,left,1,2.311558962,2018_Jul_11_1217,23
stimuli/day.png,right,0,1,1,1,right,1,1.484338045,2018_Jul_11_1217,23
stimuli/day.png,right,0,2,2,2,left,0,0.960183859,2018_Jul_11_1217,23
stimuli/night.png,left,0,3,3,3,right,0,0.596854925,2018_Jul_11_1217,23
stimuli/day.png,right,0,4,4,4,left,0,1.245133877,2018_Jul_11_1217,23
stimuli/night.png,left,0,5,5,5,right,0,1.100611925,2018_Jul_11_1217,23
stimuli/night.png,left,0,6,6,6,left,1,0.700206995,2018_Jul_11_1217,23
stimuli/day.png,right,0,7,7,7,right,1,1.11063695,2018_Jul_11_1217,23
stimuli/day.png,right,0,8,8,8,left,0,0.996258974,2018_Jul_11_1217,23
stimuli/night.png,left,0,9,9,9,right,0,1.680165052,2018_Jul_11_1217,23
stimuli/day.png,right,0,10,10,10,left,0,1.417768002,2018_Jul_11_1217,23
stimuli/night.png,left,0,11,11,11,right,0,1.250861883,2018_Jul_11_1217,23
stimuli/night.png,left,0,12,12,12,left,1,1.16362381,2018_Jul_11_1217,23
stimuli/day.png,right,0,13,13,13,right,1,1.428934097,2018_Jul_11_1217,23
stimuli/night.png,left,0,14,14,14,left,1,1.063797951,2018_Jul_11_1217,23
stimuli/day.png,right,0,15,15,15,right,1,1.146034956,2018_Jul_11_1217,23
stimuli/night.png,left,0,0,0,0,left,1,2.534511089,2018_Jul_11_1226,24
stimuli/day.png,right,0,1,1,1,right,1,1.667737007,2018_Jul_11_1226,24
stimuli/day.png,right,0,2,2,2,right,1,2.034990072,2018_Jul_11_1226,24
stimuli/night.png,left,0,3,3,3,left,1,1.718652964,2018_Jul_11_1226,24
stimuli/day.png,right,0,4,4,4,right,1,1.451784849,2018_Jul_11_1226,24
stimuli/night.png,left,0,5,5,5,left,1,1.701854944,2018_Jul_11_1226,24
stimuli/night.png,left,0,6,6,6,right,0,1.01850009,2018_Jul_11_1226,24
stimuli/day.png,right,0,7,7,7,right,1,2.335121155,2018_Jul_11_1226,24
stimuli/day.png,right,0,8,8,8,right,1,1.568457842,2018_Jul_11_1226,24
stimuli/night.png,left,0,9,9,9,left,1,1.73548007,2018_Jul_11_1226,24
stimuli/day.png,right,0,10,10,10,right,1,1.451647043,2018_Jul_11_1226,24
stimuli/night.png,left,0,11,11,11,left,1,1.318640947,2018_Jul_11_1226,24
stimuli/night.png,left,0,12,12,12,left,1,1.051856041,2018_Jul_11_1226,24
stimuli/day.png,right,0,13,13,13,right,1,1.968460798,2018_Jul_11_1226,24
stimuli/night.png,left,0,14,14,14,left,1,2.235264063,2018_Jul_11_1226,24
stimuli/day.png,right,0,15,15,15,right,1,1.668439865,2018_Jul_11_1226,24
stimuli/night.png,left,0,0,0,0,left,1,2.118422985,2018_Jul_11_1235,25
stimuli/day.png,right,0,1,1,1,NA,NA,NA,2018_Jul_11_1235,25
stimuli/day.png,right,0,2,2,2,left,0,6.002187967,2018_Jul_11_1235,25
stimuli/night.png,left,0,3,3,3,left,1,1.201597929,2018_Jul_11_1235,25
stimuli/day.png,right,0,4,4,4,right,1,1.868371964,2018_Jul_11_1235,25
stimuli/night.png,left,0,5,5,5,left,1,0.949807882,2018_Jul_11_1235,25
stimuli/night.png,left,0,6,6,6,left,1,1.416657925,2018_Jul_11_1235,25
stimuli/day.png,right,0,7,7,7,left,0,4.46844697,2018_Jul_11_1235,25
stimuli/day.png,right,0,8,8,8,left,0,10.70255494,2018_Jul_11_1235,25
stimuli/night.png,left,0,9,9,9,left,1,1.118002892,2018_Jul_11_1235,25
stimuli/day.png,right,0,10,10,10,left,0,1.285062075,2018_Jul_11_1235,25
stimuli/night.png,left,0,11,11,11,left,1,1.251859188,2018_Jul_11_1235,25
stimuli/night.png,left,0,12,12,12,left,1,1.51838398,2018_Jul_11_1235,25
stimuli/day.png,right,0,13,13,13,NA,NA,NA,2018_Jul_11_1235,25
stimuli/night.png,left,0,14,14,14,NA,NA,NA,2018_Jul_11_1235,25
stimuli/day.png,right,0,15,15,15,right,1,3.018318892,2018_Jul_11_1235,25
stimuli/night.png,left,0,0,0,0,left,1,3.850839853,2018_Jul_12_1528,27
stimuli/day.png,right,0,1,1,1,right,1,2.618247986,2018_Jul_12_1528,27
stimuli/day.png,right,0,2,2,2,right,1,1.550605059,2018_Jul_12_1528,27
stimuli/night.png,left,0,3,3,3,left,1,1.43462801,2018_Jul_12_1528,27
stimuli/day.png,right,0,4,4,4,right,1,1.685214043,2018_Jul_12_1528,27
stimuli/night.png,left,0,5,5,5,left,1,2.301763058,2018_Jul_12_1528,27
stimuli/night.png,left,0,6,6,6,left,1,2.135137081,2018_Jul_12_1528,27
stimuli/day.png,right,0,7,7,7,right,1,3.168539047,2018_Jul_12_1528,27
stimuli/day.png,right,0,8,8,8,right,1,1.918663025,2018_Jul_12_1528,27
stimuli/night.png,left,0,9,9,9,left,1,4.317556858,2018_Jul_12_1528,27
stimuli/day.png,right,0,10,10,10,right,1,1.434841156,2018_Jul_12_1528,27
stimuli/night.png,left,0,11,11,11,left,1,1.901850224,2018_Jul_12_1528,27
stimuli/night.png,left,0,12,12,12,right,0,1.068172932,2018_Jul_12_1528,27
stimuli/day.png,right,0,13,13,13,right,1,4.635862827,2018_Jul_12_1528,27
stimuli/night.png,left,0,14,14,14,left,1,1.80171299,2018_Jul_12_1528,27
stimuli/day.png,right,0,15,15,15,right,1,1.468024969,2018_Jul_12_1528,27
stimuli/night.png,left,0,0,0,0,left,1,50.15703988,2018_Jul_12_1606,28
stimuli/day.png,right,0,1,1,1,right,1,2.434468985,2018_Jul_12_1606,28
stimuli/day.png,right,0,2,2,2,right,1,2.633367062,2018_Jul_12_1606,28
stimuli/night.png,left,0,3,3,3,left,1,0.868432999,2018_Jul_12_1606,28
stimuli/day.png,right,0,4,4,4,right,1,0.751806974,2018_Jul_12_1606,28
stimuli/night.png,left,0,5,5,5,left,1,0.835124016,2018_Jul_12_1606,28
stimuli/night.png,left,0,6,6,6,right,0,0.368232965,2018_Jul_12_1606,28
stimuli/day.png,right,0,7,7,7,right,1,1.701617956,2018_Jul_12_1606,28
stimuli/day.png,right,0,8,8,8,right,1,1.701642036,2018_Jul_12_1606,28
stimuli/night.png,left,0,9,9,9,left,1,0.968430996,2018_Jul_12_1606,28
stimuli/day.png,right,0,10,10,10,right,1,0.901651859,2018_Jul_12_1606,28
stimuli/night.png,left,0,11,11,11,left,1,0.90220499,2018_Jul_12_1606,28
stimuli/night.png,left,0,12,12,12,right,0,4.501569033,2018_Jul_12_1606,28
stimuli/day.png,right,0,13,13,13,right,1,3.768914938,2018_Jul_12_1606,28
stimuli/night.png,left,0,14,14,14,right,0,1.851552963,2018_Jul_12_1606,28
stimuli/day.png,right,0,15,15,15,right,1,4.718855858,2018_Jul_12_1606,28
stimuli/night.png,left,0,0,0,0,left,1,3.517565012,2018_Jul_12_1626,29
stimuli/day.png,right,0,1,1,1,right,1,3.201406002,2018_Jul_12_1626,29
stimuli/day.png,right,0,2,2,2,right,1,1.835150003,2018_Jul_12_1626,29
stimuli/night.png,left,0,3,3,3,left,1,1.616687059,2018_Jul_12_1626,29
stimuli/day.png,right,0,4,4,4,right,1,1.668090105,2018_Jul_12_1626,29
stimuli/night.png,left,0,5,5,5,left,1,2.501585007,2018_Jul_12_1626,29
stimuli/night.png,left,0,6,6,6,left,1,1.617726088,2018_Jul_12_1626,29
stimuli/day.png,right,0,7,7,7,right,1,1.601796865,2018_Jul_12_1626,29
stimuli/day.png,right,0,8,8,8,right,1,1.535172939,2018_Jul_12_1626,29
stimuli/night.png,left,0,9,9,9,left,1,1.584785938,2018_Jul_12_1626,29
stimuli/day.png,right,0,10,10,10,right,1,1.316843033,2018_Jul_12_1626,29
stimuli/night.png,left,0,11,11,11,left,1,1.934978962,2018_Jul_12_1626,29
stimuli/night.png,left,0,12,12,12,left,1,1.384829998,2018_Jul_12_1626,29
stimuli/day.png,right,0,13,13,13,right,1,3.368828058,2018_Jul_12_1626,29
stimuli/night.png,left,0,14,14,14,left,1,1.768310785,2018_Jul_12_1626,29
stimuli/day.png,right,0,15,15,15,right,1,1.368457079,2018_Jul_12_1626,29
stimuli/night.png,left,0,0,0,0,left,1,3.652258158,2018_Jul_08_1708,20
stimuli/day.png,right,0,1,1,1,right,1,1.618422985,2018_Jul_08_1708,20
stimuli/day.png,right,0,2,2,2,right,1,5.535820961,2018_Jul_08_1708,20
stimuli/night.png,left,0,3,3,3,left,1,2.150982141,2018_Jul_08_1708,20
stimuli/day.png,right,0,4,4,4,left,0,1.784934044,2018_Jul_08_1708,20
stimuli/night.png,left,0,5,5,5,right,0,1.501151085,2018_Jul_08_1708,20
stimuli/night.png,left,0,6,6,6,right,0,2.051124096,2018_Jul_08_1708,20
stimuli/day.png,right,0,7,7,7,left,0,1.101464987,2018_Jul_08_1708,20
stimuli/day.png,right,0,8,8,8,left,0,1.918043137,2018_Jul_08_1708,20
stimuli/night.png,left,0,9,9,9,right,0,1.818123102,2018_Jul_08_1708,20
stimuli/day.png,right,0,10,10,10,right,1,6.252341986,2018_Jul_08_1708,20
stimuli/night.png,left,0,11,11,11,left,1,1.551789045,2018_Jul_08_1708,20
stimuli/night.png,left,0,12,12,12,left,1,4.101927996,2018_Jul_08_1708,20
stimuli/day.png,right,0,13,13,13,right,1,8.118785858,2018_Jul_08_1708,20
stimuli/night.png,left,0,14,14,14,left,1,2.601737022,2018_Jul_08_1708,20
stimuli/day.png,right,0,15,15,15,right,1,2.117184162,2018_Jul_08_1708,20
stimuli/night.png,left,0,0,0,0,right,0,3.885462999,2018_Jul_13_1440,34
stimuli/day.png,right,0,1,1,1,right,1,3.951400995,2018_Jul_13_1440,34
stimuli/day.png,right,0,2,2,2,right,1,2.318300962,2018_Jul_13_1440,34
stimuli/night.png,left,0,3,3,3,left,1,1.985349894,2018_Jul_13_1440,34
stimuli/day.png,right,0,4,4,4,right,1,2.616986036,2018_Jul_13_1440,34
stimuli/night.png,left,0,5,5,5,left,1,0.918476105,2018_Jul_13_1440,34
stimuli/night.png,left,0,6,6,6,right,0,1.418387175,2018_Jul_13_1440,34
stimuli/day.png,right,0,7,7,7,left,0,0.801683903,2018_Jul_13_1440,34
stimuli/day.png,right,0,8,8,8,right,1,1.418034077,2018_Jul_13_1440,34
stimuli/night.png,left,0,9,9,9,left,1,1.034886122,2018_Jul_13_1440,34
stimuli/day.png,right,0,10,10,10,right,1,0.918174982,2018_Jul_13_1440,34
stimuli/night.png,left,0,11,11,11,left,1,0.818270206,2018_Jul_13_1440,34
stimuli/night.png,left,0,12,12,12,right,0,0.668330908,2018_Jul_13_1440,34
stimuli/day.png,right,0,13,13,13,left,0,0.701420069,2018_Jul_13_1440,34
stimuli/night.png,left,0,14,14,14,right,0,2.118258953,2018_Jul_13_1440,34
stimuli/day.png,right,0,15,15,15,left,0,1.200358868,2018_Jul_13_1440,34
stimuli/night.png,left,0,0,0,0,left,1,1.517403126,2018_Jul_13_1500,35
stimuli/day.png,right,0,1,1,1,right,1,0.935034037,2018_Jul_13_1500,35
stimuli/day.png,right,0,2,2,2,right,1,1.618051767,2018_Jul_13_1500,35
stimuli/night.png,left,0,3,3,3,left,1,0.901808023,2018_Jul_13_1500,35
stimuli/day.png,right,0,4,4,4,right,1,1.051610947,2018_Jul_13_1500,35
stimuli/night.png,left,0,5,5,5,left,1,1.318601847,2018_Jul_13_1500,35
stimuli/night.png,left,0,6,6,6,right,0,0.984927893,2018_Jul_13_1500,35
stimuli/day.png,right,0,7,7,7,right,1,1.418208838,2018_Jul_13_1500,35
stimuli/day.png,right,0,8,8,8,right,1,1.135196924,2018_Jul_13_1500,35
stimuli/night.png,left,0,9,9,9,left,1,1.067296028,2018_Jul_13_1500,35
stimuli/day.png,right,0,10,10,10,right,1,1.066909075,2018_Jul_13_1500,35
stimuli/night.png,left,0,11,11,11,left,1,1.118055105,2018_Jul_13_1500,35
stimuli/night.png,left,0,12,12,12,left,1,1.234997988,2018_Jul_13_1500,35
stimuli/day.png,right,0,13,13,13,right,1,0.968365908,2018_Jul_13_1500,35
stimuli/night.png,left,0,14,14,14,left,1,1.051524878,2018_Jul_13_1500,35
stimuli/day.png,right,0,15,15,15,right,1,1.001559973,2018_Jul_13_1500,35
stimuli/night.png,left,0,0,0,0,left,1,2.035663128,2018_Jul_13_1720,36
stimuli/day.png,right,0,1,1,1,right,1,1.801002026,2018_Jul_13_1720,36
stimuli/day.png,right,0,2,2,2,left,0,1.068414211,2018_Jul_13_1720,36
stimuli/night.png,left,0,3,3,3,right,0,1.16810298,2018_Jul_13_1720,36
stimuli/day.png,right,0,4,4,4,left,0,0.951751947,2018_Jul_13_1720,36
stimuli/night.png,left,0,5,5,5,left,1,0.985408068,2018_Jul_13_1720,36
stimuli/night.png,left,0,6,6,6,left,1,1.867141962,2018_Jul_13_1720,36
stimuli/day.png,right,0,7,7,7,right,1,1.2015481,2018_Jul_13_1720,36
stimuli/day.png,right,0,8,8,8,right,1,1.285191059,2018_Jul_13_1720,36
stimuli/night.png,left,0,9,9,9,left,1,2.150249958,2018_Jul_13_1720,36
stimuli/day.png,right,0,10,10,10,right,1,2.217729092,2018_Jul_13_1720,36
stimuli/night.png,left,0,11,11,11,left,1,1.01825881,2018_Jul_13_1720,36
stimuli/night.png,left,0,12,12,12,left,1,1.101531029,2018_Jul_13_1720,36
stimuli/day.png,right,0,13,13,13,right,1,5.018453836,2018_Jul_13_1720,36
stimuli/night.png,left,0,14,14,14,left,1,3.650755167,2018_Jul_13_1720,36
stimuli/day.png,right,0,15,15,15,right,1,1.335036039,2018_Jul_13_1720,36
stimuli/night.png,left,0,0,0,0,left,1,2.201562166,2018_Jul_14_1241,37
stimuli/day.png,right,0,1,1,1,right,1,1.001000166,2018_Jul_14_1241,37
stimuli/day.png,right,0,2,2,2,left,0,1.535254002,2018_Jul_14_1241,37
stimuli/night.png,left,0,3,3,3,left,1,1.968542099,2018_Jul_14_1241,37
stimuli/day.png,right,0,4,4,4,right,1,1.168446064,2018_Jul_14_1241,37
stimuli/night.png,left,0,5,5,5,left,1,1.201585054,2018_Jul_14_1241,37
stimuli/night.png,left,0,6,6,6,left,1,1.91873908,2018_Jul_14_1241,37
stimuli/day.png,right,0,7,7,7,right,1,1.26881814,2018_Jul_14_1241,37
stimuli/day.png,right,0,8,8,8,right,1,2.568606853,2018_Jul_14_1241,37
stimuli/night.png,left,0,9,9,9,left,1,1.684013844,2018_Jul_14_1241,37
stimuli/day.png,right,0,10,10,10,right,1,2.401682138,2018_Jul_14_1241,37
stimuli/night.png,left,0,11,11,11,left,1,1.385347128,2018_Jul_14_1241,37
stimuli/night.png,left,0,12,12,12,left,1,1.851534128,2018_Jul_14_1241,37
stimuli/day.png,right,0,13,13,13,right,1,1.151445866,2018_Jul_14_1241,37
stimuli/night.png,left,0,14,14,14,left,1,1.751661062,2018_Jul_14_1241,37
stimuli/day.png,right,0,15,15,15,right,1,1.301938057,2018_Jul_14_1241,37
stimuli/night.png,left,0,0,0,0,left,1,2.634976864,2018_Jul_14_1435,40
stimuli/day.png,right,0,1,1,1,right,1,2.084342003,2018_Jul_14_1435,40
stimuli/day.png,right,0,2,2,2,right,1,2.318680048,2018_Jul_14_1435,40
stimuli/night.png,left,0,3,3,3,left,1,1.235031843,2018_Jul_14_1435,40
stimuli/day.png,right,0,4,4,4,right,1,1.01820302,2018_Jul_14_1435,40
stimuli/night.png,left,0,5,5,5,left,1,1.118069887,2018_Jul_14_1435,40
stimuli/night.png,left,0,6,6,6,left,1,1.735226154,2018_Jul_14_1435,40
stimuli/day.png,right,0,7,7,7,right,1,0.968315125,2018_Jul_14_1435,40
stimuli/day.png,right,0,8,8,8,right,1,1.068327188,2018_Jul_14_1435,40
stimuli/night.png,left,0,9,9,9,left,1,0.984827042,2018_Jul_14_1435,40
stimuli/day.png,right,0,10,10,10,left,0,0.65181303,2018_Jul_14_1435,40
stimuli/night.png,left,0,11,11,11,left,1,1.751761913,2018_Jul_14_1435,40
stimuli/night.png,left,0,12,12,12,left,1,1.652036905,2018_Jul_14_1435,40
stimuli/day.png,right,0,13,13,13,left,0,1.30154705,2018_Jul_14_1435,40
stimuli/night.png,left,0,14,14,14,right,0,0.684971094,2018_Jul_14_1435,40
stimuli/day.png,right,0,15,15,15,right,1,1.435094118,2018_Jul_14_1435,40
stimuli/night.png,left,0,0,0,0,left,1,14.38522387,2018_Jul_14_1501,42
stimuli/day.png,right,0,1,1,1,right,1,3.134612799,2018_Jul_14_1501,42
stimuli/day.png,right,0,2,2,2,right,1,1.752177,2018_Jul_14_1501,42
stimuli/night.png,left,0,3,3,3,left,1,3.017118931,2018_Jul_14_1501,42
stimuli/day.png,right,0,4,4,4,right,1,1.651904106,2018_Jul_14_1501,42
stimuli/night.png,left,0,5,5,5,left,1,1.385139942,2018_Jul_14_1501,42
stimuli/night.png,left,0,6,6,6,left,1,1.468363047,2018_Jul_14_1501,42
stimuli/day.png,right,0,7,7,7,right,1,1.801677942,2018_Jul_14_1501,42
stimuli/day.png,right,0,8,8,8,right,1,1.634989023,2018_Jul_14_1501,42
stimuli/night.png,left,0,9,9,9,left,1,1.63382411,2018_Jul_14_1501,42
stimuli/day.png,right,0,10,10,10,right,1,1.984928846,2018_Jul_14_1501,42
stimuli/night.png,left,0,11,11,11,left,1,1.735152006,2018_Jul_14_1501,42
stimuli/night.png,left,0,12,12,12,left,1,1.801403999,2018_Jul_14_1501,42
stimuli/day.png,right,0,13,13,13,right,1,1.685019016,2018_Jul_14_1501,42
stimuli/night.png,left,0,14,14,14,left,1,1.801377773,2018_Jul_14_1501,42
stimuli/day.png,right,0,15,15,15,right,1,1.60166502,2018_Jul_14_1501,42
stimuli/night.png,left,0,0,0,0,left,1,2.018640041,2018_Jul_14_1532,43
stimuli/day.png,right,0,1,1,1,right,1,0.984389067,2018_Jul_14_1532,43
stimuli/day.png,right,0,2,2,2,right,1,1.834954023,2018_Jul_14_1532,43
stimuli/night.png,left,0,3,3,3,left,1,1.018131018,2018_Jul_14_1532,43
stimuli/day.png,right,0,4,4,4,right,1,0.685065985,2018_Jul_14_1532,43
stimuli/night.png,left,0,5,5,5,left,1,0.851655006,2018_Jul_14_1532,43
stimuli/night.png,left,0,6,6,6,right,0,0.785026073,2018_Jul_14_1532,43
stimuli/day.png,right,0,7,7,7,left,0,0.468587875,2018_Jul_14_1532,43
stimuli/day.png,right,0,8,8,8,right,1,3.601912975,2018_Jul_14_1532,43
stimuli/night.png,left,0,9,9,9,left,1,1.100123882,2018_Jul_14_1532,43
stimuli/day.png,right,0,10,10,10,right,1,1.201809883,2018_Jul_14_1532,43
stimuli/night.png,left,0,11,11,11,NA,NA,NA,2018_Jul_14_1532,43
stimuli/night.png,left,0,12,12,12,right,0,1.101207018,2018_Jul_14_1532,43
stimuli/day.png,right,0,13,13,13,NA,NA,NA,2018_Jul_14_1532,43
stimuli/night.png,left,0,14,14,14,NA,NA,NA,2018_Jul_14_1532,43
stimuli/day.png,right,0,15,15,15,left,0,0.635169983,2018_Jul_14_1532,43
stimuli/night.png,left,0,0,0,0,left,1,2.552062988,2018_Jul_14_1545,44
stimuli/day.png,right,0,1,1,1,right,1,1.467931032,2018_Jul_14_1545,44
stimuli/day.png,right,0,2,2,2,right,1,1.801660061,2018_Jul_14_1545,44
stimuli/night.png,left,0,3,3,3,left,1,1.700325012,2018_Jul_14_1545,44
stimuli/day.png,right,0,4,4,4,right,1,1.184801817,2018_Jul_14_1545,44
stimuli/night.png,left,0,5,5,5,left,1,0.851980925,2018_Jul_14_1545,44
stimuli/night.png,left,0,6,6,6,right,0,0.951619148,2018_Jul_14_1545,44
stimuli/day.png,right,0,7,7,7,right,1,1.885309935,2018_Jul_14_1545,44
stimuli/day.png,right,0,8,8,8,left,0,0.033602953,2018_Jul_14_1545,44
stimuli/night.png,left,0,9,9,9,right,0,0.15182209,2018_Jul_14_1545,44
stimuli/day.png,right,0,10,10,10,left,0,0.551861048,2018_Jul_14_1545,44
stimuli/night.png,left,0,11,11,11,right,0,0.134763002,2018_Jul_14_1545,44
stimuli/night.png,left,0,12,12,12,left,1,0.018249035,2018_Jul_14_1545,44
stimuli/day.png,right,0,13,13,13,left,0,2.668574095,2018_Jul_14_1545,44
stimuli/night.png,left,0,14,14,14,left,1,3.018655062,2018_Jul_14_1545,44
stimuli/day.png,right,0,15,15,15,right,1,0.668133974,2018_Jul_14_1545,44
stimuli/night.png,left,0,0,0,0,left,1,1.668849945,2018_Jul_14_1606,45
stimuli/day.png,right,0,1,1,1,right,1,1.199407101,2018_Jul_14_1606,45
stimuli/day.png,right,0,2,2,2,right,1,1.518450975,2018_Jul_14_1606,45
stimuli/night.png,left,0,3,3,3,left,1,1.452054024,2018_Jul_14_1606,45
stimuli/day.png,right,0,4,4,4,right,1,1.501716852,2018_Jul_14_1606,45
stimuli/night.png,left,0,5,5,5,left,1,1.351631165,2018_Jul_14_1606,45
stimuli/night.png,left,0,6,6,6,right,0,1.084975004,2018_Jul_14_1606,45
stimuli/day.png,right,0,7,7,7,right,1,2.484997988,2018_Jul_14_1606,45
stimuli/day.png,right,0,8,8,8,right,1,1.851557016,2018_Jul_14_1606,45
stimuli/night.png,left,0,9,9,9,left,1,1.585046053,2018_Jul_14_1606,45
stimuli/day.png,right,0,10,10,10,right,1,2.118669987,2018_Jul_14_1606,45
stimuli/night.png,left,0,11,11,11,left,1,2.050230026,2018_Jul_14_1606,45
stimuli/night.png,left,0,12,12,12,left,1,1.633627892,2018_Jul_14_1606,45
stimuli/day.png,right,0,13,13,13,left,0,1.768208027,2018_Jul_14_1606,45
stimuli/night.png,left,0,14,14,14,left,1,1.985420942,2018_Jul_14_1606,45
stimuli/day.png,right,0,15,15,15,right,1,2.317265034,2018_Jul_14_1606,45
stimuli/night.png,left,0,0,0,0,left,1,2.118731976,2018_Jul_14_1644,46
stimuli/day.png,right,0,1,1,1,right,1,1.717766047,2018_Jul_14_1644,46
stimuli/day.png,right,0,2,2,2,right,1,1.785485983,2018_Jul_14_1644,46
stimuli/night.png,left,0,3,3,3,left,1,1.301458836,2018_Jul_14_1644,46
stimuli/day.png,right,0,4,4,4,right,1,1.135423899,2018_Jul_14_1644,46
stimuli/night.png,left,0,5,5,5,left,1,1.0682621,2018_Jul_14_1644,46
stimuli/night.png,left,0,6,6,6,right,0,0.918167114,2018_Jul_14_1644,46
stimuli/day.png,right,0,7,7,7,right,1,3.601929188,2018_Jul_14_1644,46
stimuli/day.png,right,0,8,8,8,left,0,11.31963515,2018_Jul_14_1644,46
stimuli/night.png,left,0,9,9,9,left,1,11.6028049,2018_Jul_14_1644,46
stimuli/day.png,right,0,10,10,10,right,1,0.93479991,2018_Jul_14_1644,46
stimuli/night.png,left,0,11,11,11,left,1,1.283939838,2018_Jul_14_1644,46
stimuli/night.png,left,0,12,12,12,right,0,1.051672935,2018_Jul_14_1644,46
stimuli/day.png,right,0,13,13,13,right,1,2.018353939,2018_Jul_14_1644,46
stimuli/night.png,left,0,14,14,14,left,1,1.201478958,2018_Jul_14_1644,46
stimuli/day.png,right,0,15,15,15,right,1,1.235054016,2018_Jul_14_1644,46
stimuli/night.png,left,0,0,0,0,left,1,2.385608912,2018_Jul_14_1711,47
stimuli/day.png,right,0,1,1,1,right,1,3.166386127,2018_Jul_14_1711,47
stimuli/day.png,right,0,2,2,2,right,1,2.168479204,2018_Jul_14_1711,47
stimuli/night.png,left,0,3,3,3,left,1,2.701898098,2018_Jul_14_1711,47
stimuli/day.png,right,0,4,4,4,right,1,2.518705845,2018_Jul_14_1711,47
stimuli/night.png,left,0,5,5,5,left,1,1.234886169,2018_Jul_14_1711,47
stimuli/night.png,left,0,6,6,6,left,1,2.001780987,2018_Jul_14_1711,47
stimuli/day.png,right,0,7,7,7,right,1,2.185045004,2018_Jul_14_1711,47
stimuli/day.png,right,0,8,8,8,right,1,1.485219002,2018_Jul_14_1711,47
stimuli/night.png,left,0,9,9,9,left,1,1.55185008,2018_Jul_14_1711,47
stimuli/day.png,right,0,10,10,10,right,1,1.751920938,2018_Jul_14_1711,47
stimuli/night.png,left,0,11,11,11,left,1,1.351848125,2018_Jul_14_1711,47
stimuli/night.png,left,0,12,12,12,right,0,1.618427992,2018_Jul_14_1711,47
stimuli/day.png,right,0,13,13,13,right,1,1.918289185,2018_Jul_14_1711,47
stimuli/night.png,left,0,14,14,14,left,1,1.75193119,2018_Jul_14_1711,47
stimuli/day.png,right,0,15,15,15,right,1,2.068300009,2018_Jul_14_1711,47
stimuli/night.png,left,0,0,0,0,left,1,1.918694019,2018_Jul_14_1819,48
stimuli/day.png,right,0,1,1,1,right,1,1.667771101,2018_Jul_14_1819,48
stimuli/day.png,right,0,2,2,2,right,1,1.902132034,2018_Jul_14_1819,48
stimuli/night.png,left,0,3,3,3,left,1,0.818270922,2018_Jul_14_1819,48
stimuli/day.png,right,0,4,4,4,right,1,0.851197004,2018_Jul_14_1819,48
stimuli/night.png,left,0,5,5,5,NA,NA,NA,2018_Jul_14_1819,48
stimuli/night.png,left,0,6,6,6,right,0,0.235203028,2018_Jul_14_1819,48
stimuli/day.png,right,0,7,7,7,right,1,1.033679008,2018_Jul_14_1819,48
stimuli/day.png,right,0,8,8,8,right,1,1.501749039,2018_Jul_14_1819,48
stimuli/night.png,left,0,9,9,9,left,1,1.316971064,2018_Jul_14_1819,48
stimuli/day.png,right,0,10,10,10,right,1,1.135141134,2018_Jul_14_1819,48
stimuli/night.png,left,0,11,11,11,left,1,1.019104958,2018_Jul_14_1819,48
stimuli/night.png,left,0,12,12,12,right,0,1.551716089,2018_Jul_14_1819,48
stimuli/day.png,right,0,13,13,13,left,0,1.151581049,2018_Jul_14_1819,48
stimuli/night.png,left,0,14,14,14,right,0,2.618314981,2018_Jul_14_1819,48
stimuli/day.png,right,0,15,15,15,right,1,2.635337114,2018_Jul_14_1819,48
stimuli/night.png,left,0,0,0,0,left,1,7.636059999,2018_Jul_15_1022,49
stimuli/day.png,right,0,1,1,1,right,1,2.317898989,2018_Jul_15_1022,49
stimuli/day.png,right,0,2,2,2,left,0,1.001631021,2018_Jul_15_1022,49
stimuli/night.png,left,0,3,3,3,left,1,2.418354034,2018_Jul_15_1022,49
stimuli/day.png,right,0,4,4,4,right,1,1.851636887,2018_Jul_15_1022,49
stimuli/night.png,left,0,5,5,5,left,1,2.568555117,2018_Jul_15_1022,49
stimuli/night.png,left,0,6,6,6,right,0,0.318030834,2018_Jul_15_1022,49
stimuli/day.png,right,0,7,7,7,left,0,0.134535074,2018_Jul_15_1022,49
stimuli/day.png,right,0,8,8,8,right,1,0.068235159,2018_Jul_15_1022,49
stimuli/night.png,left,0,9,9,9,NA,NA,NA,2018_Jul_15_1022,49
stimuli/day.png,right,0,10,10,10,NA,NA,NA,2018_Jul_15_1022,49
stimuli/night.png,left,0,11,11,11,left,1,0.068329811,2018_Jul_15_1022,49
stimuli/night.png,left,0,12,12,12,left,1,0.968298197,2018_Jul_15_1022,49
stimuli/day.png,right,0,13,13,13,right,1,0.984721899,2018_Jul_15_1022,49
stimuli/night.png,left,0,14,14,14,left,1,0.885113001,2018_Jul_15_1022,49
stimuli/day.png,right,0,15,15,15,right,1,1.051676035,2018_Jul_15_1022,49
stimuli/night.png,left,0,0,0,0,left,1,2.284750938,2018_Jul_15_1328,50
stimuli/day.png,right,0,1,1,1,right,1,1.734637022,2018_Jul_15_1328,50
stimuli/day.png,right,0,2,2,2,left,0,1.251559973,2018_Jul_15_1328,50
stimuli/night.png,left,0,3,3,3,right,0,1.435131073,2018_Jul_15_1328,50
stimuli/day.png,right,0,4,4,4,right,1,1.23493886,2018_Jul_15_1328,50
stimuli/night.png,left,0,5,5,5,left,1,1.818401814,2018_Jul_15_1328,50
stimuli/night.png,left,0,6,6,6,right,0,1.451895952,2018_Jul_15_1328,50
stimuli/day.png,right,0,7,7,7,left,0,1.234622955,2018_Jul_15_1328,50
stimuli/day.png,right,0,8,8,8,right,1,1.201429129,2018_Jul_15_1328,50
stimuli/night.png,left,0,9,9,9,right,0,1.284946918,2018_Jul_15_1328,50
stimuli/day.png,right,0,10,10,10,left,0,0.984890938,2018_Jul_15_1328,50
stimuli/night.png,left,0,11,11,11,right,0,0.784981012,2018_Jul_15_1328,50
stimuli/night.png,left,0,12,12,12,left,1,1.518471003,2018_Jul_15_1328,50
stimuli/day.png,right,0,13,13,13,left,0,4.335359097,2018_Jul_15_1328,50
stimuli/night.png,left,0,14,14,14,left,1,2.20186305,2018_Jul_15_1328,50
stimuli/day.png,right,0,15,15,15,left,0,1.685260057,2018_Jul_15_1328,50
stimuli/night.png,left,0,0,0,0,left,1,3.00090909,2018_Jul_15_1402,51
stimuli/day.png,right,0,1,1,1,right,1,6.066906929,2018_Jul_15_1402,51
stimuli/day.png,right,0,2,2,2,right,1,7.350772142,2018_Jul_15_1402,51
stimuli/night.png,left,0,3,3,3,left,1,2.335368156,2018_Jul_15_1402,51
stimuli/day.png,right,0,4,4,4,right,1,1.068361998,2018_Jul_15_1402,51
stimuli/night.png,left,0,5,5,5,left,1,1.118619919,2018_Jul_15_1402,51
stimuli/night.png,left,0,6,6,6,right,0,0.802093983,2018_Jul_15_1402,51
stimuli/day.png,right,0,7,7,7,left,0,1.467829943,2018_Jul_15_1402,51
stimuli/day.png,right,0,8,8,8,left,0,1.585191011,2018_Jul_15_1402,51
stimuli/night.png,left,0,9,9,9,right,0,1.335720062,2018_Jul_15_1402,51
stimuli/day.png,right,0,10,10,10,left,0,1.168394089,2018_Jul_15_1402,51
stimuli/night.png,left,0,11,11,11,right,0,0.93344593,2018_Jul_15_1402,51
stimuli/night.png,left,0,12,12,12,left,1,1.051397085,2018_Jul_15_1402,51
stimuli/day.png,right,0,13,13,13,right,1,0.968631983,2018_Jul_15_1402,51
stimuli/night.png,left,0,14,14,14,left,1,1.318161964,2018_Jul_15_1402,51
stimuli/day.png,right,0,15,15,15,right,1,0.86860013,2018_Jul_15_1402,51
stimuli/night.png,left,0,0,0,0,left,1,1.968362093,2018_Jul_15_1501,52
stimuli/day.png,right,0,1,1,1,right,1,0.834365845,2018_Jul_15_1501,52
stimuli/day.png,right,0,2,2,2,right,1,2.018435955,2018_Jul_15_1501,52
stimuli/night.png,left,0,3,3,3,left,1,0.901221991,2018_Jul_15_1501,52
stimuli/day.png,right,0,4,4,4,right,1,1.001535892,2018_Jul_15_1501,52
stimuli/night.png,left,0,5,5,5,left,1,0.868811131,2018_Jul_15_1501,52
stimuli/night.png,left,0,6,6,6,right,0,0.801681995,2018_Jul_15_1501,52
stimuli/day.png,right,0,7,7,7,right,1,1.418738127,2018_Jul_15_1501,52
stimuli/day.png,right,0,8,8,8,left,0,1.251580954,2018_Jul_15_1501,52
stimuli/night.png,left,0,9,9,9,left,1,1.868418932,2018_Jul_15_1501,52
stimuli/day.png,right,0,10,10,10,right,1,1.668450832,2018_Jul_15_1501,52
stimuli/night.png,left,0,11,11,11,left,1,1.118515968,2018_Jul_15_1501,52
stimuli/night.png,left,0,12,12,12,left,1,2.768166065,2018_Jul_15_1501,52
stimuli/day.png,right,0,13,13,13,right,1,0.834895134,2018_Jul_15_1501,52
stimuli/night.png,left,0,14,14,14,right,0,0.901688099,2018_Jul_15_1501,52
stimuli/day.png,right,0,15,15,15,right,1,1.018140078,2018_Jul_15_1501,52
stimuli/night.png,left,0,0,0,0,NA,NA,NA,2018_Jul_15_1538,53
stimuli/day.png,right,0,1,1,1,right,1,2.20107007,2018_Jul_15_1538,53
stimuli/day.png,right,0,2,2,2,right,1,3.101955891,2018_Jul_15_1538,53
stimuli/night.png,left,0,3,3,3,left,1,2.252002954,2018_Jul_15_1538,53
stimuli/day.png,right,0,4,4,4,right,1,1.868452072,2018_Jul_15_1538,53
stimuli/night.png,left,0,5,5,5,right,0,1.835137844,2018_Jul_15_1538,53
stimuli/night.png,left,0,6,6,6,right,0,1.884839058,2018_Jul_15_1538,53
stimuli/day.png,right,0,7,7,7,right,1,3.335526943,2018_Jul_15_1538,53
stimuli/day.png,right,0,8,8,8,right,1,1.618534088,2018_Jul_15_1538,53
stimuli/night.png,left,0,9,9,9,left,1,2.068728924,2018_Jul_15_1538,53
stimuli/day.png,right,0,10,10,10,right,1,7.402431965,2018_Jul_15_1538,53
stimuli/night.png,left,0,11,11,11,left,1,2.935230017,2018_Jul_15_1538,53
stimuli/night.png,left,0,12,12,12,NA,NA,NA,2018_Jul_15_1538,53
stimuli/day.png,right,0,13,13,13,NA,NA,NA,2018_Jul_15_1538,53
stimuli/night.png,left,0,14,14,14,right,0,1.251332045,2018_Jul_15_1538,53
stimuli/day.png,right,0,15,15,15,NA,NA,NA,2018_Jul_15_1538,53
stimuli/night.png,left,0,0,0,0,left,1,3.668301821,2018_Jul_15_1602,54
stimuli/day.png,right,0,1,1,1,right,1,2.067635059,2018_Jul_15_1602,54
stimuli/day.png,right,0,2,2,2,right,1,1.60200119,2018_Jul_15_1602,54
stimuli/night.png,left,0,3,3,3,left,1,1.101509094,2018_Jul_15_1602,54
stimuli/day.png,right,0,4,4,4,right,1,0.951303959,2018_Jul_15_1602,54
stimuli/night.png,left,0,5,5,5,left,1,1.301543951,2018_Jul_15_1602,54
stimuli/night.png,left,0,6,6,6,left,1,1.368440866,2018_Jul_15_1602,54
stimuli/day.png,right,0,7,7,7,right,1,1.135285854,2018_Jul_15_1602,54
stimuli/day.png,right,0,8,8,8,right,1,1.568254948,2018_Jul_15_1602,54
stimuli/night.png,left,0,9,9,9,left,1,1.21805501,2018_Jul_15_1602,54
stimuli/day.png,right,0,10,10,10,right,1,1.468460083,2018_Jul_15_1602,54
stimuli/night.png,left,0,11,11,11,left,1,1.18462491,2018_Jul_15_1602,54
stimuli/night.png,left,0,12,12,12,right,0,2.168293953,2018_Jul_15_1602,54
stimuli/day.png,right,0,13,13,13,right,1,10.40279412,2018_Jul_15_1602,54
stimuli/night.png,left,0,14,14,14,left,1,1.301769972,2018_Jul_15_1602,54
stimuli/day.png,right,0,15,15,15,right,1,1.351685047,2018_Jul_15_1602,54
stimuli/night.png,left,0,0,0,0,NA,NA,NA,2018_Jul_15_1645,55
stimuli/day.png,right,0,1,1,1,right,1,2.317570925,2018_Jul_15_1645,55
stimuli/day.png,right,0,2,2,2,right,1,2.251752853,2018_Jul_15_1645,55
stimuli/night.png,left,0,3,3,3,NA,NA,NA,2018_Jul_15_1645,55
stimuli/day.png,right,0,4,4,4,right,1,1.701746941,2018_Jul_15_1645,55
stimuli/night.png,left,0,5,5,5,NA,NA,NA,2018_Jul_15_1645,55
stimuli/night.png,left,0,6,6,6,NA,NA,NA,2018_Jul_15_1645,55
stimuli/day.png,right,0,7,7,7,right,1,1.38498807,2018_Jul_15_1645,55
stimuli/day.png,right,0,8,8,8,right,1,0.984992027,2018_Jul_15_1645,55
stimuli/night.png,left,0,9,9,9,NA,NA,NA,2018_Jul_15_1645,55
stimuli/day.png,right,0,10,10,10,right,1,5.785545111,2018_Jul_15_1645,55
stimuli/night.png,left,0,11,11,11,NA,NA,NA,2018_Jul_15_1645,55
stimuli/night.png,left,0,12,12,12,right,0,2.9847579,2018_Jul_15_1645,55
stimuli/day.png,right,0,13,13,13,right,1,2.101410151,2018_Jul_15_1645,55
stimuli/night.png,left,0,14,14,14,NA,NA,NA,2018_Jul_15_1645,55
stimuli/day.png,right,0,15,15,15,right,1,1.16792202,2018_Jul_15_1645,55
stimuli/night.png,left,0,0,0,0,left,1,5.43504405,2018_Jul_15_1704,56
stimuli/day.png,right,0,1,1,1,right,1,1.666182995,2018_Jul_15_1704,56
stimuli/day.png,right,0,2,2,2,right,1,1.566574097,2018_Jul_15_1704,56
stimuli/night.png,left,0,3,3,3,left,1,1.48537612,2018_Jul_15_1704,56
stimuli/day.png,right,0,4,4,4,right,1,1.001646042,2018_Jul_15_1704,56
stimuli/night.png,left,0,5,5,5,left,1,1.001423836,2018_Jul_15_1704,56
stimuli/night.png,left,0,6,6,6,left,1,1.851793051,2018_Jul_15_1704,56
stimuli/day.png,right,0,7,7,7,right,1,1.985105991,2018_Jul_15_1704,56
stimuli/day.png,right,0,8,8,8,right,1,1.633422136,2018_Jul_15_1704,56
stimuli/night.png,left,0,9,9,9,left,1,1.651950836,2018_Jul_15_1704,56
stimuli/day.png,right,0,10,10,10,right,1,6.268872976,2018_Jul_15_1704,56
stimuli/night.png,left,0,11,11,11,left,1,1.801753044,2018_Jul_15_1704,56
stimuli/night.png,left,0,12,12,12,left,1,1.401731014,2018_Jul_15_1704,56
stimuli/day.png,right,0,13,13,13,left,0,0.683228016,2018_Jul_15_1704,56
stimuli/night.png,left,0,14,14,14,left,1,1.03521204,2018_Jul_15_1704,56
stimuli/day.png,right,0,15,15,15,right,1,1.902228117,2018_Jul_15_1704,56
stimuli/night.png,left,0,0,0,0,right,0,1.218947887,2018_Jul_17_1131,58
stimuli/day.png,right,0,1,1,1,left,0,2.818117142,2018_Jul_17_1131,58
stimuli/day.png,right,0,2,2,2,left,0,0.885131121,2018_Jul_17_1131,58
stimuli/night.png,left,0,3,3,3,left,1,2.101918936,2018_Jul_17_1131,58
stimuli/day.png,right,0,4,4,4,right,1,2.368396997,2018_Jul_17_1131,58
stimuli/night.png,left,0,5,5,5,left,1,0.834712982,2018_Jul_17_1131,58
stimuli/night.png,left,0,6,6,6,right,0,0.184719086,2018_Jul_17_1131,58
stimuli/day.png,right,0,7,7,7,right,1,8.085444927,2018_Jul_17_1131,58
stimuli/day.png,right,0,8,8,8,left,0,2.468510866,2018_Jul_17_1131,58
stimuli/night.png,left,0,9,9,9,left,1,3.20174098,2018_Jul_17_1131,58
stimuli/day.png,right,0,10,10,10,right,1,1.601874113,2018_Jul_17_1131,58
stimuli/night.png,left,0,11,11,11,left,1,1.435081005,2018_Jul_17_1131,58
stimuli/night.png,left,0,12,12,12,right,0,0.284671068,2018_Jul_17_1131,58
stimuli/day.png,right,0,13,13,13,left,0,0.951913118,2018_Jul_17_1131,58
stimuli/night.png,left,0,14,14,14,right,0,1.451277018,2018_Jul_17_1131,58
stimuli/day.png,right,0,15,15,15,right,1,4.368663073,2018_Jul_17_1131,58
stimuli/night.png,left,0,0,0,0,left,1,2.101760149,2018_Jul_17_1206,59
stimuli/day.png,right,0,1,1,1,right,1,1.717653036,2018_Jul_17_1206,59
stimuli/day.png,right,0,2,2,2,right,1,2.118441105,2018_Jul_17_1206,59
stimuli/night.png,left,0,3,3,3,left,1,1.534832954,2018_Jul_17_1206,59
stimuli/day.png,right,0,4,4,4,right,1,1.684947968,2018_Jul_17_1206,59
stimuli/night.png,left,0,5,5,5,left,1,2.135149956,2018_Jul_17_1206,59
stimuli/night.png,left,0,6,6,6,left,1,2.185360909,2018_Jul_17_1206,59
stimuli/day.png,right,0,7,7,7,left,0,1.418619871,2018_Jul_17_1206,59
stimuli/day.png,right,0,8,8,8,right,1,2.218287945,2018_Jul_17_1206,59
stimuli/night.png,left,0,9,9,9,left,1,2.28489995,2018_Jul_17_1206,59
stimuli/day.png,right,0,10,10,10,right,1,1.785113096,2018_Jul_17_1206,59
stimuli/night.png,left,0,11,11,11,left,1,3.201906919,2018_Jul_17_1206,59
stimuli/night.png,left,0,12,12,12,left,1,2.135118008,2018_Jul_17_1206,59
stimuli/day.png,right,0,13,13,13,right,1,2.084513187,2018_Jul_17_1206,59
stimuli/night.png,left,0,14,14,14,left,1,1.468384027,2018_Jul_17_1206,59
stimuli/day.png,right,0,15,15,15,right,1,2.235181093,2018_Jul_17_1206,59
stimuli/night.png,left,0,0,0,0,right,0,2.535472155,2018_Jul_17_1247,60
stimuli/day.png,right,0,1,1,1,right,1,2.050983191,2018_Jul_17_1247,60
stimuli/day.png,right,0,2,2,2,right,1,3.168331146,2018_Jul_17_1247,60
stimuli/night.png,left,0,3,3,3,left,1,1.785180092,2018_Jul_17_1247,60
stimuli/day.png,right,0,4,4,4,right,1,2.968400002,2018_Jul_17_1247,60
stimuli/night.png,left,0,5,5,5,left,1,2.435575008,2018_Jul_17_1247,60
stimuli/night.png,left,0,6,6,6,left,1,2.568201065,2018_Jul_17_1247,60
stimuli/day.png,right,0,7,7,7,right,1,1.584479094,2018_Jul_17_1247,60
stimuli/day.png,right,0,8,8,8,right,1,0.935089111,2018_Jul_17_1247,60
stimuli/night.png,left,0,9,9,9,left,1,2.051720142,2018_Jul_17_1247,60
stimuli/day.png,right,0,10,10,10,left,0,1.05185914,2018_Jul_17_1247,60
stimuli/night.png,left,0,11,11,11,right,0,1.735022068,2018_Jul_17_1247,60
stimuli/night.png,left,0,12,12,12,left,1,1.368675947,2018_Jul_17_1247,60
stimuli/day.png,right,0,13,13,13,right,1,3.50198102,2018_Jul_17_1247,60
stimuli/night.png,left,0,14,14,14,left,1,1.751446962,2018_Jul_17_1247,60
stimuli/day.png,right,0,15,15,15,right,1,3.451783895,2018_Jul_17_1247,60
stimuli/night.png,left,0,0,0,0,right,0,9.819253922,2018_Jul_18_1418,63
stimuli/day.png,right,0,1,1,1,right,1,2.351129055,2018_Jul_18_1418,63
stimuli/day.png,right,0,2,2,2,right,1,2.368502855,2018_Jul_18_1418,63
stimuli/night.png,left,0,3,3,3,left,1,16.13658905,2018_Jul_18_1418,63
stimuli/day.png,right,0,4,4,4,left,0,6.185391903,2018_Jul_18_1418,63
stimuli/night.png,left,0,5,5,5,right,0,1.585001945,2018_Jul_18_1418,63
stimuli/night.png,left,0,6,6,6,NA,NA,NA,2018_Jul_18_1418,63
stimuli/day.png,right,0,7,7,7,right,1,3.434237003,2018_Jul_18_1418,63
stimuli/day.png,right,0,8,8,8,NA,NA,NA,2018_Jul_18_1418,63
stimuli/night.png,left,0,9,9,9,left,1,10.25273395,2018_Jul_18_1418,63
stimuli/day.png,right,0,10,10,10,right,1,5.683959961,2018_Jul_18_1418,63
stimuli/night.png,left,0,11,11,11,right,0,4.152020931,2018_Jul_18_1418,63
stimuli/night.png,left,0,12,12,12,left,1,7.784242153,2018_Jul_18_1418,63
stimuli/day.png,right,0,13,13,13,right,1,3.602062225,2018_Jul_18_1418,63
stimuli/night.png,left,0,14,14,14,NA,NA,NA,2018_Jul_18_1418,63
stimuli/day.png,right,0,15,15,15,NA,NA,NA,2018_Jul_18_1418,63
stimuli/night.png,left,0,0,0,0,left,1,3.835788965,2018_Jul_18_1447,64
stimuli/day.png,right,0,1,1,1,right,1,1.350794077,2018_Jul_18_1447,64
stimuli/day.png,right,0,2,2,2,right,1,2.801972866,2018_Jul_18_1447,64
stimuli/night.png,left,0,3,3,3,left,1,1.051606894,2018_Jul_18_1447,64
stimuli/day.png,right,0,4,4,4,right,1,1.051090002,2018_Jul_18_1447,64
stimuli/night.png,left,0,5,5,5,left,1,1.201553822,2018_Jul_18_1447,64
stimuli/night.png,left,0,6,6,6,right,0,1.585585833,2018_Jul_18_1447,64
stimuli/day.png,right,0,7,7,7,right,1,2.235216141,2018_Jul_18_1447,64
stimuli/day.png,right,0,8,8,8,left,0,1.418043137,2018_Jul_18_1447,64
stimuli/night.png,left,0,9,9,9,left,1,2.635409117,2018_Jul_18_1447,64
stimuli/day.png,right,0,10,10,10,right,1,1.517693043,2018_Jul_18_1447,64
stimuli/night.png,left,0,11,11,11,left,1,1.251888037,2018_Jul_18_1447,64
stimuli/night.png,left,0,12,12,12,right,0,2.935458899,2018_Jul_18_1447,64
stimuli/day.png,right,0,13,13,13,left,0,1.484667063,2018_Jul_18_1447,64
stimuli/night.png,left,0,14,14,14,NA,NA,NA,2018_Jul_18_1447,64
stimuli/day.png,right,0,15,15,15,NA,NA,NA,2018_Jul_18_1447,64
stimuli/night.png,left,0,0,0,0,left,1,2.332690954,2018_Jul_18_1457,65
stimuli/day.png,right,0,1,1,1,right,1,1.901305914,2018_Jul_18_1457,65
stimuli/day.png,right,0,2,2,2,left,0,1.184966087,2018_Jul_18_1457,65
stimuli/night.png,left,0,3,3,3,left,1,1.768400192,2018_Jul_18_1457,65
stimuli/day.png,right,0,4,4,4,right,1,1.101790905,2018_Jul_18_1457,65
stimuli/night.png,left,0,5,5,5,left,1,0.935225964,2018_Jul_18_1457,65
stimuli/night.png,left,0,6,6,6,left,1,2.068850994,2018_Jul_18_1457,65
stimuli/day.png,right,0,7,7,7,right,1,1.418232918,2018_Jul_18_1457,65
stimuli/day.png,right,0,8,8,8,right,1,1.651932001,2018_Jul_18_1457,65
stimuli/night.png,left,0,9,9,9,left,1,1.284733057,2018_Jul_18_1457,65
stimuli/day.png,right,0,10,10,10,right,1,1.234879971,2018_Jul_18_1457,65
stimuli/night.png,left,0,11,11,11,left,1,1.084501982,2018_Jul_18_1457,65
stimuli/night.png,left,0,12,12,12,left,1,1.618362188,2018_Jul_18_1457,65
stimuli/day.png,right,0,13,13,13,right,1,1.31793499,2018_Jul_18_1457,65
stimuli/night.png,left,0,14,14,14,left,1,1.067945004,2018_Jul_18_1457,65
stimuli/day.png,right,0,15,15,15,right,1,2.735193968,2018_Jul_18_1457,65
stimuli/night.png,left,0,0,0,0,left,1,28.42212701,2018_Jul_21_1039,66
stimuli/day.png,right,0,1,1,1,left,0,4.034789801,2018_Jul_21_1039,66
stimuli/day.png,right,0,2,2,2,left,0,3.58513999,2018_Jul_21_1039,66
stimuli/night.png,left,0,3,3,3,right,0,1.535152912,2018_Jul_21_1039,66
stimuli/day.png,right,0,4,4,4,left,0,1.201225996,2018_Jul_21_1039,66
stimuli/night.png,left,0,5,5,5,right,0,1.251660109,2018_Jul_21_1039,66
stimuli/night.png,left,0,6,6,6,right,0,1.700489998,2018_Jul_21_1039,66
stimuli/day.png,right,0,7,7,7,left,0,4.085272789,2018_Jul_21_1039,66
stimuli/day.png,right,0,8,8,8,left,0,6.302153111,2018_Jul_21_1039,66
stimuli/night.png,left,0,9,9,9,right,0,1.435073137,2018_Jul_21_1039,66
stimuli/day.png,right,0,10,10,10,left,0,1.518376112,2018_Jul_21_1039,66
stimuli/night.png,left,0,11,11,11,right,0,1.5682199,2018_Jul_21_1039,66
stimuli/night.png,left,0,12,12,12,left,1,1.401643991,2018_Jul_21_1039,66
stimuli/day.png,right,0,13,13,13,left,0,4.80257082,2018_Jul_21_1039,66
stimuli/night.png,left,0,14,14,14,right,0,1.300611973,2018_Jul_21_1039,66
stimuli/day.png,right,0,15,15,15,left,0,1.768021107,2018_Jul_21_1039,66
stimuli/night.png,left,0,0,0,0,left,1,2.495938063,2018_Jul_18_1617,67
stimuli/day.png,right,0,1,1,1,right,1,1.184984922,2018_Jul_18_1617,67
stimuli/day.png,right,0,2,2,2,left,0,1.301202059,2018_Jul_18_1617,67
stimuli/night.png,left,0,3,3,3,left,1,3.463369131,2018_Jul_18_1617,67
stimuli/day.png,right,0,4,4,4,right,1,1.429400921,2018_Jul_18_1617,67
stimuli/night.png,left,0,5,5,5,left,1,1.013412952,2018_Jul_18_1617,67
stimuli/night.png,left,0,6,6,6,left,1,1.480071068,2018_Jul_18_1617,67
stimuli/day.png,right,0,7,7,7,right,1,1.478401184,2018_Jul_18_1617,67
stimuli/day.png,right,0,8,8,8,right,1,1.329061985,2018_Jul_18_1617,67
stimuli/night.png,left,0,9,9,9,left,1,1.397297859,2018_Jul_18_1617,67
stimuli/day.png,right,0,10,10,10,right,1,1.629806995,2018_Jul_18_1617,67
stimuli/night.png,left,0,11,11,11,left,1,2.598907948,2018_Jul_18_1617,67
stimuli/night.png,left,0,12,12,12,left,1,1.597605944,2018_Jul_18_1617,67
stimuli/day.png,right,0,13,13,13,right,1,1.295966148,2018_Jul_18_1617,67
stimuli/night.png,left,0,14,14,14,left,1,2.100266933,2018_Jul_18_1617,67
stimuli/day.png,right,0,15,15,15,right,1,1.35145998,2018_Jul_18_1617,67
stimuli/night.png,left,0,0,0,0,right,0,2.234885931,2018_Jul_19_1556,68
stimuli/day.png,right,0,1,1,1,left,0,2.268074989,2018_Jul_19_1556,68
stimuli/day.png,right,0,2,2,2,left,0,2.151802778,2018_Jul_19_1556,68
stimuli/night.png,left,0,3,3,3,right,0,1.001631021,2018_Jul_19_1556,68
stimuli/day.png,right,0,4,4,4,left,0,1.268498898,2018_Jul_19_1556,68
stimuli/night.png,left,0,5,5,5,right,0,0.101720095,2018_Jul_19_1556,68
stimuli/night.png,left,0,6,6,6,right,0,1.568138838,2018_Jul_19_1556,68
stimuli/day.png,right,0,7,7,7,left,0,1.018157005,2018_Jul_19_1556,68
stimuli/day.png,right,0,8,8,8,right,1,1.084096909,2018_Jul_19_1556,68
stimuli/night.png,left,0,9,9,9,left,1,1.185096979,2018_Jul_19_1556,68
stimuli/day.png,right,0,10,10,10,left,0,1.517991066,2018_Jul_19_1556,68
stimuli/night.png,left,0,11,11,11,right,0,2.068347931,2018_Jul_19_1556,68
stimuli/night.png,left,0,12,12,12,right,0,1.834893942,2018_Jul_19_1556,68
stimuli/day.png,right,0,13,13,13,left,0,2.45176506,2018_Jul_19_1556,68
stimuli/night.png,left,0,14,14,14,right,0,1.552096844,2018_Jul_19_1556,68
stimuli/day.png,right,0,15,15,15,left,0,1.051803827,2018_Jul_19_1556,68
stimuli/night.png,left,0,0,0,0,left,1,2.467988014,2018_Jul_19_1619,69
stimuli/day.png,right,0,1,1,1,right,1,1.816755056,2018_Jul_19_1619,69
stimuli/day.png,right,0,2,2,2,right,1,2.118339062,2018_Jul_19_1619,69
stimuli/night.png,left,0,3,3,3,left,1,1.634541988,2018_Jul_19_1619,69
stimuli/day.png,right,0,4,4,4,right,1,1.485454082,2018_Jul_19_1619,69
stimuli/night.png,left,0,5,5,5,left,1,1.235379934,2018_Jul_19_1619,69
stimuli/night.png,left,0,6,6,6,left,1,1.451656818,2018_Jul_19_1619,69
stimuli/day.png,right,0,7,7,7,right,1,1.11795187,2018_Jul_19_1619,69
stimuli/day.png,right,0,8,8,8,right,1,1.083719015,2018_Jul_19_1619,69
stimuli/night.png,left,0,9,9,9,left,1,1.085067034,2018_Jul_19_1619,69
stimuli/day.png,right,0,10,10,10,right,1,1.768521786,2018_Jul_19_1619,69
stimuli/night.png,left,0,11,11,11,left,1,0.851523876,2018_Jul_19_1619,69
stimuli/night.png,left,0,12,12,12,right,0,1.018079996,2018_Jul_19_1619,69
stimuli/day.png,right,0,13,13,13,right,1,1.851597071,2018_Jul_19_1619,69
stimuli/night.png,left,0,14,14,14,left,1,1.434917927,2018_Jul_19_1619,69
stimuli/day.png,right,0,15,15,15,right,1,1.251646996,2018_Jul_19_1619,69
stimuli/night.png,left,0,0,0,0,right,0,11.95287299,2018_Jul_19_1627,70
stimuli/day.png,right,0,1,1,1,right,1,0.55124712,2018_Jul_19_1627,70
stimuli/day.png,right,0,2,2,2,right,1,32.88848495,2018_Jul_19_1627,70
stimuli/night.png,left,0,3,3,3,left,1,3.685285091,2018_Jul_19_1627,70
stimuli/day.png,right,0,4,4,4,right,1,2.735442877,2018_Jul_19_1627,70
stimuli/night.png,left,0,5,5,5,NA,NA,NA,2018_Jul_19_1627,70
stimuli/night.png,left,0,6,6,6,right,0,1.218147039,2018_Jul_19_1627,70
stimuli/day.png,right,0,7,7,7,left,0,3.018351078,2018_Jul_19_1627,70
stimuli/day.png,right,0,8,8,8,left,0,1.951748133,2018_Jul_19_1627,70
stimuli/night.png,left,0,9,9,9,NA,NA,NA,2018_Jul_19_1627,70
stimuli/day.png,right,0,10,10,10,left,0,1.335205078,2018_Jul_19_1627,70
stimuli/night.png,left,0,11,11,11,NA,NA,NA,2018_Jul_19_1627,70
stimuli/night.png,left,0,12,12,12,NA,NA,NA,2018_Jul_19_1627,70
stimuli/day.png,right,0,13,13,13,right,1,2.402107954,2018_Jul_19_1627,70
stimuli/night.png,left,0,14,14,14,NA,NA,NA,2018_Jul_19_1627,70
stimuli/day.png,right,0,15,15,15,right,1,3.035287857,2018_Jul_19_1627,70
stimuli/night.png,left,0,0,0,0,left,1,2.119196177,2018_Jul_19_1643,71
stimuli/day.png,right,0,1,1,1,NA,NA,NA,2018_Jul_19_1643,71
stimuli/day.png,right,0,2,2,2,left,0,1.518519163,2018_Jul_19_1643,71
stimuli/night.png,left,0,3,3,3,NA,NA,NA,2018_Jul_19_1643,71
stimuli/day.png,right,0,4,4,4,right,1,4.885253906,2018_Jul_19_1643,71
stimuli/night.png,left,0,5,5,5,left,1,2.301742077,2018_Jul_19_1643,71
stimuli/night.png,left,0,6,6,6,left,1,3.218693018,2018_Jul_19_1643,71
stimuli/day.png,right,0,7,7,7,right,1,1.185565948,2018_Jul_19_1643,71
stimuli/day.png,right,0,8,8,8,left,0,1.251554966,2018_Jul_19_1643,71
stimuli/night.png,left,0,9,9,9,left,1,1.668363094,2018_Jul_19_1643,71
stimuli/day.png,right,0,10,10,10,right,1,1.768620968,2018_Jul_19_1643,71
stimuli/night.png,left,0,11,11,11,right,0,1.984763861,2018_Jul_19_1643,71
stimuli/night.png,left,0,12,12,12,left,1,1.618851185,2018_Jul_19_1643,71
stimuli/day.png,right,0,13,13,13,right,1,1.901556969,2018_Jul_19_1643,71
stimuli/night.png,left,0,14,14,14,left,1,2.968509197,2018_Jul_19_1643,71
stimuli/day.png,right,0,15,15,15,right,1,2.585152864,2018_Jul_19_1643,71
stimuli/night.png,left,0,0,0,0,left,1,4.152211905,2018_Jul_20_1348,72
stimuli/day.png,right,0,1,1,1,NA,NA,NA,2018_Jul_20_1348,72
stimuli/day.png,right,0,2,2,2,NA,NA,NA,2018_Jul_20_1348,72
stimuli/night.png,left,0,3,3,3,NA,NA,NA,2018_Jul_20_1348,72
stimuli/day.png,right,0,4,4,4,NA,NA,NA,2018_Jul_20_1348,72
stimuli/night.png,left,0,5,5,5,NA,NA,NA,2018_Jul_20_1348,72
stimuli/night.png,left,0,6,6,6,NA,NA,NA,2018_Jul_20_1348,72
stimuli/day.png,right,0,7,7,7,NA,NA,NA,2018_Jul_20_1348,72
stimuli/day.png,right,0,8,8,8,NA,NA,NA,2018_Jul_20_1348,72
stimuli/night.png,left,0,9,9,9,NA,NA,NA,2018_Jul_20_1348,72
stimuli/day.png,right,0,10,10,10,NA,NA,NA,2018_Jul_20_1348,72
stimuli/night.png,left,0,11,11,11,NA,NA,NA,2018_Jul_20_1348,72
stimuli/night.png,left,0,12,12,12,NA,NA,NA,2018_Jul_20_1348,72
stimuli/day.png,right,0,13,13,13,NA,NA,NA,2018_Jul_20_1348,72
stimuli/night.png,left,0,14,14,14,NA,NA,NA,2018_Jul_20_1348,72
stimuli/day.png,right,0,15,15,15,NA,NA,NA,2018_Jul_20_1348,72
stimuli/night.png,left,0,0,0,0,left,1,2.285750151,2018_Jul_20_1553,74
stimuli/day.png,right,0,1,1,1,right,1,1.334543943,2018_Jul_20_1553,74
stimuli/day.png,right,0,2,2,2,right,1,3.884953022,2018_Jul_20_1553,74
stimuli/night.png,left,0,3,3,3,left,1,1.201550007,2018_Jul_20_1553,74
stimuli/day.png,right,0,4,4,4,left,0,2.901758909,2018_Jul_20_1553,74
stimuli/night.png,left,0,5,5,5,NA,NA,NA,2018_Jul_20_1553,74
stimuli/night.png,left,0,6,6,6,left,1,5.835403919,2018_Jul_20_1553,74
stimuli/day.png,right,0,7,7,7,right,1,1.501554012,2018_Jul_20_1553,74
stimuli/day.png,right,0,8,8,8,left,0,5.88536191,2018_Jul_20_1553,74
stimuli/night.png,left,0,9,9,9,right,0,6.319076061,2018_Jul_20_1553,74
stimuli/day.png,right,0,10,10,10,left,0,2.118366003,2018_Jul_20_1553,74
stimuli/night.png,left,0,11,11,11,left,1,1.334675074,2018_Jul_20_1553,74
stimuli/night.png,left,0,12,12,12,left,1,1.151120186,2018_Jul_20_1553,74
stimuli/day.png,right,0,13,13,13,left,0,2.885077953,2018_Jul_20_1553,74
stimuli/night.png,left,0,14,14,14,NA,NA,NA,2018_Jul_20_1553,74
stimuli/day.png,right,0,15,15,15,left,0,3.185349941,2018_Jul_20_1553,74
stimuli/night.png,left,0,0,0,0,left,1,3.885424137,2018_Jul_20_1614,75
stimuli/day.png,right,0,1,1,1,right,1,2.567696095,2018_Jul_20_1614,75
stimuli/day.png,right,0,2,2,2,right,1,2.550927877,2018_Jul_20_1614,75
stimuli/night.png,left,0,3,3,3,left,1,1.418652058,2018_Jul_20_1614,75
stimuli/day.png,right,0,4,4,4,right,1,1.535191059,2018_Jul_20_1614,75
stimuli/night.png,left,0,5,5,5,left,1,0.968248129,2018_Jul_20_1614,75
stimuli/night.png,left,0,6,6,6,right,0,15.63703394,2018_Jul_20_1614,75
stimuli/day.png,right,0,7,7,7,left,0,6.700881958,2018_Jul_20_1614,75
stimuli/day.png,right,0,8,8,8,right,1,2.701877117,2018_Jul_20_1614,75
stimuli/night.png,left,0,9,9,9,left,1,0.968498945,2018_Jul_20_1614,75
stimuli/day.png,right,0,10,10,10,right,1,1.884717941,2018_Jul_20_1614,75
stimuli/night.png,left,0,11,11,11,left,1,1.06802702,2018_Jul_20_1614,75
stimuli/night.png,left,0,12,12,12,right,0,1.901647091,2018_Jul_20_1614,75
stimuli/day.png,right,0,13,13,13,right,1,2.935282946,2018_Jul_20_1614,75
stimuli/night.png,left,0,14,14,14,left,1,1.867926121,2018_Jul_20_1614,75
stimuli/day.png,right,0,15,15,15,right,1,1.135054111,2018_Jul_20_1614,75
stimuli/night.png,left,0,0,0,0,left,1,2.815629959,2018_Jul_21_1053,76
stimuli/day.png,right,0,1,1,1,right,1,2.080852985,2018_Jul_21_1053,76
stimuli/day.png,right,0,2,2,2,left,0,1.952121973,2018_Jul_21_1053,76
stimuli/night.png,left,0,3,3,3,right,0,1.079751015,2018_Jul_21_1053,76
stimuli/day.png,right,0,4,4,4,right,1,2.667017937,2018_Jul_21_1053,76
stimuli/night.png,left,0,5,5,5,left,1,0.946925879,2018_Jul_21_1053,76
stimuli/night.png,left,0,6,6,6,right,0,1.212346792,2018_Jul_21_1053,76
stimuli/day.png,right,0,7,7,7,left,0,1.167379856,2018_Jul_21_1053,76
stimuli/day.png,right,0,8,8,8,left,0,2.150273085,2018_Jul_21_1053,76
stimuli/night.png,left,0,9,9,9,left,1,3.230897903,2018_Jul_21_1053,76
stimuli/day.png,right,0,10,10,10,right,1,11.05236387,2018_Jul_21_1053,76
stimuli/night.png,left,0,11,11,11,left,1,1.198225975,2018_Jul_21_1053,76
stimuli/night.png,left,0,12,12,12,left,1,2.5450418,2018_Jul_21_1053,76
stimuli/day.png,right,0,13,13,13,right,1,1.634651184,2018_Jul_21_1053,76
stimuli/night.png,left,0,14,14,14,left,1,1.934718132,2018_Jul_21_1053,76
stimuli/day.png,right,0,15,15,15,right,1,1.385583162,2018_Jul_21_1053,76
stimuli/night.png,left,0,0,0,0,left,1,2.901388168,2018_Jul_21_1106,77
stimuli/day.png,right,0,1,1,1,right,1,1.799700975,2018_Jul_21_1106,77
stimuli/day.png,right,0,2,2,2,right,1,2.918417931,2018_Jul_21_1106,77
stimuli/night.png,left,0,3,3,3,left,1,1.58502388,2018_Jul_21_1106,77
stimuli/day.png,right,0,4,4,4,right,1,1.234847069,2018_Jul_21_1106,77
stimuli/night.png,left,0,5,5,5,right,0,2.284891844,2018_Jul_21_1106,77
stimuli/night.png,left,0,6,6,6,right,0,1.968410015,2018_Jul_21_1106,77
stimuli/day.png,right,0,7,7,7,right,1,1.651253939,2018_Jul_21_1106,77
stimuli/day.png,right,0,8,8,8,right,1,2.350400925,2018_Jul_21_1106,77
stimuli/night.png,left,0,9,9,9,left,1,2.418717861,2018_Jul_21_1106,77
stimuli/day.png,right,0,10,10,10,right,1,2.585572958,2018_Jul_21_1106,77
stimuli/night.png,left,0,11,11,11,left,1,5.23547101,2018_Jul_21_1106,77
stimuli/night.png,left,0,12,12,12,right,0,2.751308918,2018_Jul_21_1106,77
stimuli/day.png,right,0,13,13,13,right,1,2.185017824,2018_Jul_21_1106,77
stimuli/night.png,left,0,14,14,14,right,0,3.135363102,2018_Jul_21_1106,77
stimuli/day.png,right,0,15,15,15,right,1,1.10165596,2018_Jul_21_1106,77
stimuli/night.png,left,0,0,0,0,left,1,2.468352079,2018_Jul_21_1124,78
stimuli/day.png,right,0,1,1,1,right,1,1.73465085,2018_Jul_21_1124,78
stimuli/day.png,right,0,2,2,2,left,0,1.651452065,2018_Jul_21_1124,78
stimuli/night.png,left,0,3,3,3,left,1,1.234761953,2018_Jul_21_1124,78
stimuli/day.png,right,0,4,4,4,right,1,4.98633194,2018_Jul_21_1124,78
stimuli/night.png,left,0,5,5,5,left,1,1.568218946,2018_Jul_21_1124,78
stimuli/night.png,left,0,6,6,6,right,0,2.968558073,2018_Jul_21_1124,78
stimuli/day.png,right,0,7,7,7,right,1,3.918647051,2018_Jul_21_1124,78
stimuli/day.png,right,0,8,8,8,right,1,2.518607855,2018_Jul_21_1124,78
stimuli/night.png,left,0,9,9,9,right,0,2.018287897,2018_Jul_21_1124,78
stimuli/day.png,right,0,10,10,10,right,1,2.285135984,2018_Jul_21_1124,78
stimuli/night.png,left,0,11,11,11,left,1,2.185219049,2018_Jul_21_1124,78
stimuli/night.png,left,0,12,12,12,left,1,1.785026073,2018_Jul_21_1124,78
stimuli/day.png,right,0,13,13,13,right,1,1.935118914,2018_Jul_21_1124,78
stimuli/night.png,left,0,14,14,14,left,1,1.718539,2018_Jul_21_1124,78
stimuli/day.png,right,0,15,15,15,right,1,1.566934109,2018_Jul_21_1124,78
stimuli/night.png,left,0,0,0,0,right,0,3.133099794,2018_Jul_21_1154,79
stimuli/day.png,right,0,1,1,1,right,1,1.684570074,2018_Jul_21_1154,79
stimuli/day.png,right,0,2,2,2,right,1,1.484796047,2018_Jul_21_1154,79
stimuli/night.png,left,0,3,3,3,NA,NA,NA,2018_Jul_21_1154,79
stimuli/day.png,right,0,4,4,4,right,1,1.834847927,2018_Jul_21_1154,79
stimuli/night.png,left,0,5,5,5,NA,NA,NA,2018_Jul_21_1154,79
stimuli/night.png,left,0,6,6,6,NA,NA,NA,2018_Jul_21_1154,79
stimuli/day.png,right,0,7,7,7,right,1,1.634589911,2018_Jul_21_1154,79
stimuli/day.png,right,0,8,8,8,right,1,1.401717901,2018_Jul_21_1154,79
stimuli/night.png,left,0,9,9,9,NA,NA,NA,2018_Jul_21_1154,79
stimuli/day.png,right,0,10,10,10,right,1,1.435173035,2018_Jul_21_1154,79
stimuli/night.png,left,0,11,11,11,NA,NA,NA,2018_Jul_21_1154,79
stimuli/night.png,left,0,12,12,12,NA,NA,NA,2018_Jul_21_1154,79
stimuli/day.png,right,0,13,13,13,right,1,1.051041842,2018_Jul_21_1154,79
stimuli/night.png,left,0,14,14,14,NA,NA,NA,2018_Jul_21_1154,79
stimuli/day.png,right,0,15,15,15,right,1,0.634827137,2018_Jul_21_1154,79
stimuli/night.png,left,0,0,0,0,left,1,1.968034029,2018_Jul_21_1325,80
stimuli/day.png,right,0,1,1,1,right,1,1.451175213,2018_Jul_21_1325,80
stimuli/day.png,right,0,2,2,2,right,1,1.601828814,2018_Jul_21_1325,80
stimuli/night.png,left,0,3,3,3,left,1,1.384618044,2018_Jul_21_1325,80
stimuli/day.png,right,0,4,4,4,right,1,1.669107914,2018_Jul_21_1325,80
stimuli/night.png,left,0,5,5,5,right,0,3.135262012,2018_Jul_21_1325,80
stimuli/night.png,left,0,6,6,6,left,1,1.501922131,2018_Jul_21_1325,80
stimuli/day.png,right,0,7,7,7,right,1,1.218873024,2018_Jul_21_1325,80
stimuli/day.png,right,0,8,8,8,right,1,1.385307074,2018_Jul_21_1325,80
stimuli/night.png,left,0,9,9,9,left,1,5.885454893,2018_Jul_21_1325,80
stimuli/day.png,right,0,10,10,10,right,1,2.233577967,2018_Jul_21_1325,80
stimuli/night.png,left,0,11,11,11,left,1,1.034942865,2018_Jul_21_1325,80
stimuli/night.png,left,0,12,12,12,right,0,1.135057926,2018_Jul_21_1325,80
stimuli/day.png,right,0,13,13,13,left,0,1.535197973,2018_Jul_21_1325,80
stimuli/night.png,left,0,14,14,14,left,1,2.668214798,2018_Jul_21_1325,80
stimuli/day.png,right,0,15,15,15,right,1,1.985034943,2018_Jul_21_1325,80
stimuli/night.png,left,0,0,0,0,left,1,4.301626921,2018_Jul_21_1405,81
stimuli/day.png,right,0,1,1,1,right,1,2.602032185,2018_Jul_21_1405,81
stimuli/day.png,right,0,2,2,2,right,1,9.685458899,2018_Jul_21_1405,81
stimuli/night.png,left,0,3,3,3,left,1,2.718012094,2018_Jul_21_1405,81
stimuli/day.png,right,0,4,4,4,right,1,2.668407917,2018_Jul_21_1405,81
stimuli/night.png,left,0,5,5,5,left,1,1.101708174,2018_Jul_21_1405,81
stimuli/night.png,left,0,6,6,6,left,1,1.818604946,2018_Jul_21_1405,81
stimuli/day.png,right,0,7,7,7,NA,NA,NA,2018_Jul_21_1405,81
stimuli/day.png,right,0,8,8,8,NA,NA,NA,2018_Jul_21_1405,81
stimuli/night.png,left,0,9,9,9,left,1,3.06853199,2018_Jul_21_1405,81
stimuli/day.png,right,0,10,10,10,NA,NA,NA,2018_Jul_21_1405,81
stimuli/night.png,left,0,11,11,11,right,0,1.768314838,2018_Jul_21_1405,81
stimuli/night.png,left,0,12,12,12,NA,NA,NA,2018_Jul_21_1405,81
stimuli/day.png,right,0,13,13,13,NA,NA,NA,2018_Jul_21_1405,81
stimuli/night.png,left,0,14,14,14,right,0,1.568235874,2018_Jul_21_1405,81
stimuli/day.png,right,0,15,15,15,NA,NA,NA,2018_Jul_21_1405,81
stimuli/night.png,left,0,0,0,0,right,0,3.367483854,2018_Jul_21_1431,82
stimuli/day.png,right,0,1,1,1,left,0,1.201684952,2018_Jul_21_1431,82
stimuli/day.png,right,0,2,2,2,left,0,2.185433865,2018_Jul_21_1431,82
stimuli/night.png,left,0,3,3,3,right,0,15.18653488,2018_Jul_21_1431,82
stimuli/day.png,right,0,4,4,4,left,0,2.184635878,2018_Jul_21_1431,82
stimuli/night.png,left,0,5,5,5,left,1,1.901322842,2018_Jul_21_1431,82
stimuli/night.png,left,0,6,6,6,right,0,2.66858387,2018_Jul_21_1431,82
stimuli/day.png,right,0,7,7,7,NA,NA,NA,2018_Jul_21_1431,82
stimuli/day.png,right,0,8,8,8,right,1,2.701809883,2018_Jul_21_1431,82
stimuli/night.png,left,0,9,9,9,left,1,1.734991074,2018_Jul_21_1431,82
stimuli/day.png,right,0,10,10,10,right,1,1.301686049,2018_Jul_21_1431,82
stimuli/night.png,left,0,11,11,11,left,1,1.401860952,2018_Jul_21_1431,82
stimuli/night.png,left,0,12,12,12,right,0,3.78523612,2018_Jul_21_1431,82
stimuli/day.png,right,0,13,13,13,left,0,1.668236971,2018_Jul_21_1431,82
stimuli/night.png,left,0,14,14,14,right,0,1.567998886,2018_Jul_21_1431,82
stimuli/day.png,right,0,15,15,15,left,0,1.484894991,2018_Jul_21_1431,82
stimuli/night.png,left,0,0,0,0,left,1,3.352632999,2018_Jul_21_1507,83
stimuli/day.png,right,0,1,1,1,right,1,1.967824936,2018_Jul_21_1507,83
stimuli/day.png,right,0,2,2,2,left,0,1.651955128,2018_Jul_21_1507,83
stimuli/night.png,left,0,3,3,3,left,1,1.451726913,2018_Jul_21_1507,83
stimuli/day.png,right,0,4,4,4,right,1,0.884857178,2018_Jul_21_1507,83
stimuli/night.png,left,0,5,5,5,left,1,1.016819,2018_Jul_21_1507,83
stimuli/night.png,left,0,6,6,6,right,0,0.952558041,2018_Jul_21_1507,83
stimuli/day.png,right,0,7,7,7,left,0,1.11858201,2018_Jul_21_1507,83
stimuli/day.png,right,0,8,8,8,right,1,2.21708107,2018_Jul_21_1507,83
stimuli/night.png,left,0,9,9,9,left,1,1.601844072,2018_Jul_21_1507,83
stimuli/day.png,right,0,10,10,10,right,1,0.80168891,2018_Jul_21_1507,83
stimuli/night.png,left,0,11,11,11,left,1,1.53502202,2018_Jul_21_1507,83
stimuli/night.png,left,0,12,12,12,right,0,0.901794195,2018_Jul_21_1507,83
stimuli/day.png,right,0,13,13,13,right,1,1.268476963,2018_Jul_21_1507,83
stimuli/night.png,left,0,14,14,14,left,1,1.134970903,2018_Jul_21_1507,83
stimuli/day.png,right,0,15,15,15,right,1,1.168787003,2018_Jul_21_1507,83
stimuli/night.png,left,0,0,0,0,left,1,2.917466879,2018_Jul_21_1511,84
stimuli/day.png,right,0,1,1,1,right,1,1.168730021,2018_Jul_21_1511,84
stimuli/day.png,right,0,2,2,2,left,0,1.56793499,2018_Jul_21_1511,84
stimuli/night.png,left,0,3,3,3,left,1,3.585520029,2018_Jul_21_1511,84
stimuli/day.png,right,0,4,4,4,right,1,1.385138988,2018_Jul_21_1511,84
stimuli/night.png,left,0,5,5,5,left,1,1.30173707,2018_Jul_21_1511,84
stimuli/night.png,left,0,6,6,6,right,0,1.901609898,2018_Jul_21_1511,84
stimuli/day.png,right,0,7,7,7,right,1,1.201285124,2018_Jul_21_1511,84
stimuli/day.png,right,0,8,8,8,left,0,1.234879017,2018_Jul_21_1511,84
stimuli/night.png,left,0,9,9,9,left,1,1.835067034,2018_Jul_21_1511,84
stimuli/day.png,right,0,10,10,10,right,1,1.635017157,2018_Jul_21_1511,84
stimuli/night.png,left,0,11,11,11,left,1,1.134990931,2018_Jul_21_1511,84
stimuli/night.png,left,0,12,12,12,left,1,1.801743031,2018_Jul_21_1511,84
stimuli/day.png,right,0,13,13,13,right,1,0.634719133,2018_Jul_21_1511,84
stimuli/night.png,left,0,14,14,14,left,1,1.751473904,2018_Jul_21_1511,84
stimuli/day.png,right,0,15,15,15,right,1,1.835059881,2018_Jul_21_1511,84
stimuli/night.png,left,0,0,0,0,left,1,1.696793079,2018_Jul_21_1524,85
stimuli/day.png,right,0,1,1,1,right,1,0.569237947,2018_Jul_21_1524,85
stimuli/day.png,right,0,2,2,2,left,0,1.185896873,2018_Jul_21_1524,85
stimuli/night.png,left,0,3,3,3,right,0,2.329761028,2018_Jul_21_1524,85
stimuli/day.png,right,0,4,4,4,left,0,1.452026129,2018_Jul_21_1524,85
stimuli/night.png,left,0,5,5,5,right,0,1.380081892,2018_Jul_21_1524,85
stimuli/night.png,left,0,6,6,6,right,0,1.69659996,2018_Jul_21_1524,85
stimuli/day.png,right,0,7,7,7,left,0,1.517400026,2018_Jul_21_1524,85
stimuli/day.png,right,0,8,8,8,left,0,1.733984947,2018_Jul_21_1524,85
stimuli/night.png,left,0,9,9,9,right,0,1.328989983,2018_Jul_21_1524,85
stimuli/day.png,right,0,10,10,10,left,0,1.268656969,2018_Jul_21_1524,85
stimuli/night.png,left,0,11,11,11,right,0,1.063415051,2018_Jul_21_1524,85
stimuli/night.png,left,0,12,12,12,left,1,1.047482967,2018_Jul_21_1524,85
stimuli/day.png,right,0,13,13,13,right,1,1.186557055,2018_Jul_21_1524,85
stimuli/night.png,left,0,14,14,14,left,1,1.01235795,2018_Jul_21_1524,85
stimuli/day.png,right,0,15,15,15,right,1,0.818464994,2018_Jul_21_1524,85
stimuli/night.png,left,0,0,0,0,left,1,2.751661062,2018_Jul_21_1615,86
stimuli/day.png,right,0,1,1,1,right,1,1.100003004,2018_Jul_21_1615,86
stimuli/day.png,right,0,2,2,2,left,0,0.98487401,2018_Jul_21_1615,86
stimuli/night.png,left,0,3,3,3,right,0,1.301886082,2018_Jul_21_1615,86
stimuli/day.png,right,0,4,4,4,left,0,0.351580858,2018_Jul_21_1615,86
stimuli/night.png,left,0,5,5,5,NA,NA,NA,2018_Jul_21_1615,86
stimuli/night.png,left,0,6,6,6,left,1,0.068027973,2018_Jul_21_1615,86
stimuli/day.png,right,0,7,7,7,NA,NA,NA,2018_Jul_21_1615,86
stimuli/day.png,right,0,8,8,8,left,0,2.168599129,2018_Jul_21_1615,86
stimuli/night.png,left,0,9,9,9,left,1,6.802218914,2018_Jul_21_1615,86
stimuli/day.png,right,0,10,10,10,left,0,2.368665218,2018_Jul_21_1615,86
stimuli/night.png,left,0,11,11,11,left,1,1.518141031,2018_Jul_21_1615,86
stimuli/night.png,left,0,12,12,12,right,0,1.135195971,2018_Jul_21_1615,86
stimuli/day.png,right,0,13,13,13,left,0,1.334972858,2018_Jul_21_1615,86
stimuli/night.png,left,0,14,14,14,left,1,2.885564804,2018_Jul_21_1615,86
stimuli/day.png,right,0,15,15,15,left,0,4.452139854,2018_Jul_21_1615,86
stimuli/night.png,left,0,0,0,0,left,1,3.185651064,2018_Jul_21_1624,87
stimuli/day.png,right,0,1,1,1,right,1,2.134335041,2018_Jul_21_1624,87
stimuli/day.png,right,0,2,2,2,right,1,1.685435057,2018_Jul_21_1624,87
stimuli/night.png,left,0,3,3,3,left,1,1.701544046,2018_Jul_21_1624,87
stimuli/day.png,right,0,4,4,4,right,1,1.61864996,2018_Jul_21_1624,87
stimuli/night.png,left,0,5,5,5,left,1,1.168482065,2018_Jul_21_1624,87
stimuli/night.png,left,0,6,6,6,left,1,1.501862049,2018_Jul_21_1624,87
stimuli/day.png,right,0,7,7,7,right,1,1.335176945,2018_Jul_21_1624,87
stimuli/day.png,right,0,8,8,8,left,0,0.985320807,2018_Jul_21_1624,87
stimuli/night.png,left,0,9,9,9,right,0,1.184702873,2018_Jul_21_1624,87
stimuli/day.png,right,0,10,10,10,left,0,1.185766935,2018_Jul_21_1624,87
stimuli/night.png,left,0,11,11,11,right,0,1.05177784,2018_Jul_21_1624,87
stimuli/night.png,left,0,12,12,12,left,1,0.96668911,2018_Jul_21_1624,87
stimuli/day.png,right,0,13,13,13,right,1,1.034970045,2018_Jul_21_1624,87
stimuli/night.png,left,0,14,14,14,left,1,1.068327904,2018_Jul_21_1624,87
stimuli/day.png,right,0,15,15,15,right,1,0.168261051,2018_Jul_21_1624,87
stimuli/night.png,left,0,0,0,0,left,1,6.184235096,2018_Jul_24_1237,91
stimuli/day.png,right,0,1,1,1,right,1,1.984130859,2018_Jul_24_1237,91
stimuli/day.png,right,0,2,2,2,right,1,2.018554926,2018_Jul_24_1237,91
stimuli/night.png,left,0,3,3,3,left,1,2.418254137,2018_Jul_24_1237,91
stimuli/day.png,right,0,4,4,4,right,1,2.28508997,2018_Jul_24_1237,91
stimuli/night.png,left,0,5,5,5,left,1,2.217331171,2018_Jul_24_1237,91
stimuli/night.png,left,0,6,6,6,right,0,2.618436098,2018_Jul_24_1237,91
stimuli/day.png,right,0,7,7,7,right,1,2.935214996,2018_Jul_24_1237,91
stimuli/day.png,right,0,8,8,8,right,1,2.18540597,2018_Jul_24_1237,91
stimuli/night.png,left,0,9,9,9,left,1,2.334728956,2018_Jul_24_1237,91
stimuli/day.png,right,0,10,10,10,right,1,2.583830833,2018_Jul_24_1237,91
stimuli/night.png,left,0,11,11,11,NA,NA,NA,2018_Jul_24_1237,91
stimuli/night.png,left,0,12,12,12,right,0,1.566879034,2018_Jul_24_1237,91
stimuli/day.png,right,0,13,13,13,right,1,5.001870155,2018_Jul_24_1237,91
stimuli/night.png,left,0,14,14,14,NA,NA,NA,2018_Jul_24_1237,91
stimuli/day.png,right,0,15,15,15,right,1,2.268346071,2018_Jul_24_1237,91
stimuli/night.png,left,0,0,0,0,left,1,2.868458033,2018_Jul_25_1305,92
stimuli/day.png,right,0,1,1,1,right,1,1.852236986,2018_Jul_25_1305,92
stimuli/day.png,right,0,2,2,2,left,0,2.001870155,2018_Jul_25_1305,92
stimuli/night.png,left,0,3,3,3,left,1,2.101101875,2018_Jul_25_1305,92
stimuli/day.png,right,0,4,4,4,right,1,1.184790134,2018_Jul_25_1305,92
stimuli/night.png,left,0,5,5,5,left,1,4.318319082,2018_Jul_25_1305,92
stimuli/night.png,left,0,6,6,6,left,1,2.950505972,2018_Jul_25_1305,92
stimuli/day.png,right,0,7,7,7,right,1,2.151601791,2018_Jul_25_1305,92
stimuli/day.png,right,0,8,8,8,right,1,1.4186759,2018_Jul_25_1305,92
stimuli/night.png,left,0,9,9,9,left,1,3.285140991,2018_Jul_25_1305,92
stimuli/day.png,right,0,10,10,10,right,1,2.401713133,2018_Jul_25_1305,92
stimuli/night.png,left,0,11,11,11,left,1,2.98449111,2018_Jul_25_1305,92
stimuli/night.png,left,0,12,12,12,right,0,1.435035944,2018_Jul_25_1305,92
stimuli/day.png,right,0,13,13,13,right,1,3.568661928,2018_Jul_25_1305,92
stimuli/night.png,left,0,14,14,14,left,1,1.168691158,2018_Jul_25_1305,92
stimuli/day.png,right,0,15,15,15,right,1,3.101511955,2018_Jul_25_1305,92
stimuli/night.png,left,0,0,0,0,left,1,5.301088095,2018_Jul_29_1125,93
stimuli/day.png,right,0,1,1,1,right,1,1.133681059,2018_Jul_29_1125,93
stimuli/day.png,right,0,2,2,2,right,1,2.002310991,2018_Jul_29_1125,93
stimuli/night.png,left,0,3,3,3,left,1,1.835074902,2018_Jul_29_1125,93
stimuli/day.png,right,0,4,4,4,right,1,1.434863806,2018_Jul_29_1125,93
stimuli/night.png,left,0,5,5,5,left,1,1.31831789,2018_Jul_29_1125,93
stimuli/night.png,left,0,6,6,6,right,0,1.434164047,2018_Jul_29_1125,93
stimuli/day.png,right,0,7,7,7,left,0,1.068034887,2018_Jul_29_1125,93
stimuli/day.png,right,0,8,8,8,right,1,1.53503108,2018_Jul_29_1125,93
stimuli/night.png,left,0,9,9,9,left,1,1.151355028,2018_Jul_29_1125,93
stimuli/day.png,right,0,10,10,10,right,1,2.818837881,2018_Jul_29_1125,93
stimuli/night.png,left,0,11,11,11,left,1,1.301820993,2018_Jul_29_1125,93
stimuli/night.png,left,0,12,12,12,right,0,1.583474874,2018_Jul_29_1125,93
stimuli/day.png,right,0,13,13,13,left,0,0.767915964,2018_Jul_29_1125,93
stimuli/night.png,left,0,14,14,14,right,0,1.851486921,2018_Jul_29_1125,93
stimuli/day.png,right,0,15,15,15,left,0,1.518666029,2018_Jul_29_1125,93
stimuli/night.png,left,0,0,0,0,left,1,4.068837881,2018_Jul_29_1239,94
stimuli/day.png,right,0,1,1,1,right,1,2.76633215,2018_Jul_29_1239,94
stimuli/day.png,right,0,2,2,2,right,1,3.519294024,2018_Jul_29_1239,94
stimuli/night.png,left,0,3,3,3,left,1,1.568725109,2018_Jul_29_1239,94
stimuli/day.png,right,0,4,4,4,right,1,1.135267973,2018_Jul_29_1239,94
stimuli/night.png,left,0,5,5,5,left,1,0.751603127,2018_Jul_29_1239,94
stimuli/night.png,left,0,6,6,6,right,0,0.651706934,2018_Jul_29_1239,94
stimuli/day.png,right,0,7,7,7,left,0,0.651826143,2018_Jul_29_1239,94
stimuli/day.png,right,0,8,8,8,right,1,2.835250854,2018_Jul_29_1239,94
stimuli/night.png,left,0,9,9,9,left,1,1.035035849,2018_Jul_29_1239,94
stimuli/day.png,right,0,10,10,10,right,1,0.734965086,2018_Jul_29_1239,94
stimuli/night.png,left,0,11,11,11,left,1,0.385135889,2018_Jul_29_1239,94
stimuli/night.png,left,0,12,12,12,right,0,0.484678984,2018_Jul_29_1239,94
stimuli/day.png,right,0,13,13,13,right,1,1.451961994,2018_Jul_29_1239,94
stimuli/night.png,left,0,14,14,14,left,1,0.768187046,2018_Jul_29_1239,94
stimuli/day.png,right,0,15,15,15,right,1,1.10142684,2018_Jul_29_1239,94
stimuli/night.png,left,0,0,0,0,left,1,4.218952179,2018_Jul_29_1315,96
stimuli/day.png,right,0,1,1,1,right,1,1.251082897,2018_Jul_29_1315,96
stimuli/day.png,right,0,2,2,2,right,1,1.234948158,2018_Jul_29_1315,96
stimuli/night.png,left,0,3,3,3,left,1,2.684926033,2018_Jul_29_1315,96
stimuli/day.png,right,0,4,4,4,right,1,1.468356133,2018_Jul_29_1315,96
stimuli/night.png,left,0,5,5,5,left,1,1.635448933,2018_Jul_29_1315,96
stimuli/night.png,left,0,6,6,6,left,1,1.684963942,2018_Jul_29_1315,96
stimuli/day.png,right,0,7,7,7,right,1,1.101708174,2018_Jul_29_1315,96
stimuli/day.png,right,0,8,8,8,right,1,1.434998035,2018_Jul_29_1315,96
stimuli/night.png,left,0,9,9,9,left,1,1.517286062,2018_Jul_29_1315,96
stimuli/day.png,right,0,10,10,10,right,1,1.084688902,2018_Jul_29_1315,96
stimuli/night.png,left,0,11,11,11,left,1,1.351826906,2018_Jul_29_1315,96
stimuli/night.png,left,0,12,12,12,right,0,1.068494081,2018_Jul_29_1315,96
stimuli/day.png,right,0,13,13,13,right,1,2.185060978,2018_Jul_29_1315,96
stimuli/night.png,left,0,14,14,14,left,1,1.684494019,2018_Jul_29_1315,96
stimuli/day.png,right,0,15,15,15,right,1,0.934839964,2018_Jul_29_1315,96
stimuli/night.png,left,0,0,0,0,right,0,2.333874941,2018_Jul_29_1340,97
stimuli/day.png,right,0,1,1,1,left,0,1.066601992,2018_Jul_29_1340,97
stimuli/day.png,right,0,2,2,2,left,0,2.368177891,2018_Jul_29_1340,97
stimuli/night.png,left,0,3,3,3,right,0,1.251541853,2018_Jul_29_1340,97
stimuli/day.png,right,0,4,4,4,left,0,1.068150997,2018_Jul_29_1340,97
stimuli/night.png,left,0,5,5,5,right,0,1.051607847,2018_Jul_29_1340,97
stimuli/night.png,left,0,6,6,6,left,1,0.934973955,2018_Jul_29_1340,97
stimuli/day.png,right,0,7,7,7,left,0,1.401503801,2018_Jul_29_1340,97
stimuli/day.png,right,0,8,8,8,left,0,1.568289995,2018_Jul_29_1340,97
stimuli/night.png,left,0,9,9,9,right,0,1.784476995,2018_Jul_29_1340,97
stimuli/day.png,right,0,10,10,10,left,0,2.318538904,2018_Jul_29_1340,97
stimuli/night.png,left,0,11,11,11,right,0,2.868659973,2018_Jul_29_1340,97
stimuli/night.png,left,0,12,12,12,right,0,1.635091066,2018_Jul_29_1340,97
stimuli/day.png,right,0,13,13,13,left,0,1.368395805,2018_Jul_29_1340,97
stimuli/night.png,left,0,14,14,14,right,0,1.251349926,2018_Jul_29_1340,97
stimuli/day.png,right,0,15,15,15,left,0,1.001771927,2018_Jul_29_1340,97
stimuli/night.png,left,0,0,0,0,left,1,2.468763113,2018_Jul_29_1409,98
stimuli/day.png,right,0,1,1,1,right,1,3.384786844,2018_Jul_29_1409,98
stimuli/day.png,right,0,2,2,2,right,1,1.568226099,2018_Jul_29_1409,98
stimuli/night.png,left,0,3,3,3,left,1,1.151512861,2018_Jul_29_1409,98
stimuli/day.png,right,0,4,4,4,right,1,3.102025986,2018_Jul_29_1409,98
stimuli/night.png,left,0,5,5,5,left,1,1.018234015,2018_Jul_29_1409,98
stimuli/night.png,left,0,6,6,6,right,0,1.085530996,2018_Jul_29_1409,98
stimuli/day.png,right,0,7,7,7,left,0,0.884839773,2018_Jul_29_1409,98
stimuli/day.png,right,0,8,8,8,left,0,1.683625937,2018_Jul_29_1409,98
stimuli/night.png,left,0,9,9,9,left,1,3.368424892,2018_Jul_29_1409,98
stimuli/day.png,right,0,10,10,10,right,1,0.900239944,2018_Jul_29_1409,98
stimuli/night.png,left,0,11,11,11,left,1,1.133436918,2018_Jul_29_1409,98
stimuli/night.png,left,0,12,12,12,right,0,0.851584911,2018_Jul_29_1409,98
stimuli/day.png,right,0,13,13,13,right,1,2.683924913,2018_Jul_29_1409,98
stimuli/night.png,left,0,14,14,14,left,1,0.684880018,2018_Jul_29_1409,98
stimuli/day.png,right,0,15,15,15,right,1,2.518332958,2018_Jul_29_1409,98
stimuli/night.png,left,0,0,0,0,left,1,2.351479053,2018_Jul_29_1545,100
stimuli/day.png,right,0,1,1,1,right,1,0.952224016,2018_Jul_29_1545,100
stimuli/day.png,right,0,2,2,2,left,0,1.168544054,2018_Jul_29_1545,100
stimuli/night.png,left,0,3,3,3,right,0,1.201968193,2018_Jul_29_1545,100
stimuli/day.png,right,0,4,4,4,left,0,0.901483059,2018_Jul_29_1545,100
stimuli/night.png,left,0,5,5,5,right,0,1.568465948,2018_Jul_29_1545,100
stimuli/night.png,left,0,6,6,6,right,0,4.635273933,2018_Jul_29_1545,100
stimuli/day.png,right,0,7,7,7,left,0,0.96812892,2018_Jul_29_1545,100
stimuli/day.png,right,0,8,8,8,right,1,0.751605034,2018_Jul_29_1545,100
stimuli/night.png,left,0,9,9,9,right,0,2.052091122,2018_Jul_29_1545,100
stimuli/day.png,right,0,10,10,10,left,0,5.002368927,2018_Jul_29_1545,100
stimuli/night.png,left,0,11,11,11,right,0,0.734854937,2018_Jul_29_1545,100
stimuli/night.png,left,0,12,12,12,left,1,2.101980209,2018_Jul_29_1545,100
stimuli/day.png,right,0,13,13,13,right,1,0.801656008,2018_Jul_29_1545,100
stimuli/night.png,left,0,14,14,14,left,1,0.801640987,2018_Jul_29_1545,100
stimuli/day.png,right,0,15,15,15,right,1,1.184379101,2018_Jul_29_1545,100
stimuli/night.png,left,0,0,0,0,left,1,2.635524988,2018_Jul_29_1603,101
stimuli/day.png,right,0,1,1,1,right,1,1.634345055,2018_Jul_29_1603,101
stimuli/day.png,right,0,2,2,2,left,0,1.368031979,2018_Jul_29_1603,101
stimuli/night.png,left,0,3,3,3,right,0,1.80176878,2018_Jul_29_1603,101
stimuli/day.png,right,0,4,4,4,left,0,0.984753132,2018_Jul_29_1603,101
stimuli/night.png,left,0,5,5,5,right,0,1.984502077,2018_Jul_29_1603,101
stimuli/night.png,left,0,6,6,6,left,1,1.018073797,2018_Jul_29_1603,101
stimuli/day.png,right,0,7,7,7,right,1,1.218215942,2018_Jul_29_1603,101
stimuli/day.png,right,0,8,8,8,left,0,1.201484919,2018_Jul_29_1603,101
stimuli/night.png,left,0,9,9,9,left,1,2.216843128,2018_Jul_29_1603,101
stimuli/day.png,right,0,10,10,10,right,1,0.985472202,2018_Jul_29_1603,101
stimuli/night.png,left,0,11,11,11,left,1,1.051502943,2018_Jul_29_1603,101
stimuli/night.png,left,0,12,12,12,right,0,0.951502085,2018_Jul_29_1603,101
stimuli/day.png,right,0,13,13,13,left,0,1.134900093,2018_Jul_29_1603,101
stimuli/night.png,left,0,14,14,14,right,0,1.366814852,2018_Jul_29_1603,101
stimuli/day.png,right,0,15,15,15,left,0,1.118330956,2018_Jul_29_1603,101
stimuli/night.png,left,0,0,0,0,left,1,1.984137058,2018_Aug_01_1111,102
stimuli/day.png,right,0,1,1,1,right,1,1.43520093,2018_Aug_01_1111,102
stimuli/day.png,right,0,2,2,2,right,1,1.468942165,2018_Aug_01_1111,102
stimuli/night.png,left,0,3,3,3,left,1,1.562508106,2018_Aug_01_1111,102
stimuli/day.png,right,0,4,4,4,right,1,1.46813488,2018_Aug_01_1111,102
stimuli/night.png,left,0,5,5,5,left,1,0.934541941,2018_Aug_01_1111,102
stimuli/night.png,left,0,6,6,6,left,1,2.214555979,2018_Aug_01_1111,102
stimuli/day.png,right,0,7,7,7,right,1,0.984070063,2018_Aug_01_1111,102
stimuli/day.png,right,0,8,8,8,left,0,1.344352007,2018_Aug_01_1111,102
stimuli/night.png,left,0,9,9,9,left,1,1.329748869,2018_Aug_01_1111,102
stimuli/day.png,right,0,10,10,10,right,1,1.217801094,2018_Aug_01_1111,102
stimuli/night.png,left,0,11,11,11,left,1,2.918413877,2018_Aug_01_1111,102
stimuli/night.png,left,0,12,12,12,left,1,1.180732965,2018_Aug_01_1111,102
stimuli/day.png,right,0,13,13,13,NA,NA,NA,2018_Aug_01_1111,102
stimuli/night.png,left,0,14,14,14,left,1,1.833384037,2018_Aug_01_1111,102
stimuli/day.png,right,0,15,15,15,right,1,0.818355799,2018_Aug_01_1111,102
stimuli/night.png,left,0,0,0,0,left,1,2.667596817,2018_Aug_01_1122,103
stimuli/day.png,right,0,1,1,1,right,1,1.400877953,2018_Aug_01_1122,103
stimuli/day.png,right,0,2,2,2,right,1,1.36848712,2018_Aug_01_1122,103
stimuli/night.png,left,0,3,3,3,left,1,0.717035055,2018_Aug_01_1122,103
stimuli/day.png,right,0,4,4,4,right,1,2.383467913,2018_Aug_01_1122,103
stimuli/night.png,left,0,5,5,5,left,1,0.851210117,2018_Aug_01_1122,103
stimuli/night.png,left,0,6,6,6,right,0,1.534980059,2018_Aug_01_1122,103
stimuli/day.png,right,0,7,7,7,right,1,2.001725912,2018_Aug_01_1122,103
stimuli/day.png,right,0,8,8,8,right,1,1.551599979,2018_Aug_01_1122,103
stimuli/night.png,left,0,9,9,9,left,1,0.968283176,2018_Aug_01_1122,103
stimuli/day.png,right,0,10,10,10,left,0,3.668432951,2018_Aug_01_1122,103
stimuli/night.png,left,0,11,11,11,right,0,1.434491873,2018_Aug_01_1122,103
stimuli/night.png,left,0,12,12,12,right,0,1.451567888,2018_Aug_01_1122,103
stimuli/day.png,right,0,13,13,13,right,1,1.935104847,2018_Aug_01_1122,103
stimuli/night.png,left,0,14,14,14,left,1,1.401467085,2018_Aug_01_1122,103
stimuli/day.png,right,0,15,15,15,right,1,2.168450117,2018_Aug_01_1122,103
stimuli/night.png,left,0,0,0,0,left,1,7.134759903,2018_Aug_01_1237,105
stimuli/day.png,right,0,1,1,1,right,1,2.85108614,2018_Aug_01_1237,105
stimuli/day.png,right,0,2,2,2,right,1,1.66822505,2018_Aug_01_1237,105
stimuli/night.png,left,0,3,3,3,left,1,0.916986942,2018_Aug_01_1237,105
stimuli/day.png,right,0,4,4,4,right,1,1.218666077,2018_Aug_01_1237,105
stimuli/night.png,left,0,5,5,5,left,1,0.951328039,2018_Aug_01_1237,105
stimuli/night.png,left,0,6,6,6,left,1,0.901409149,2018_Aug_01_1237,105
stimuli/day.png,right,0,7,7,7,right,1,2.451822042,2018_Aug_01_1237,105
stimuli/day.png,right,0,8,8,8,right,1,1.618447065,2018_Aug_01_1237,105
stimuli/night.png,left,0,9,9,9,left,1,1.484829187,2018_Aug_01_1237,105
stimuli/day.png,right,0,10,10,10,right,1,2.151242018,2018_Aug_01_1237,105
stimuli/night.png,left,0,11,11,11,left,1,0.867271185,2018_Aug_01_1237,105
stimuli/night.png,left,0,12,12,12,left,1,6.885675907,2018_Aug_01_1237,105
stimuli/day.png,right,0,13,13,13,left,0,2.552098036,2018_Aug_01_1237,105
stimuli/night.png,left,0,14,14,14,right,0,1.018534184,2018_Aug_01_1237,105
stimuli/day.png,right,0,15,15,15,right,1,5.968873024,2018_Aug_01_1237,105
stimuli/night.png,left,0,0,0,0,left,1,1.951065063,2018_Aug_01_1305,106
stimuli/day.png,right,0,1,1,1,right,1,1.117542982,2018_Aug_01_1305,106
stimuli/day.png,right,0,2,2,2,right,1,1.435069799,2018_Aug_01_1305,106
stimuli/night.png,left,0,3,3,3,left,1,0.917999029,2018_Aug_01_1305,106
stimuli/day.png,right,0,4,4,4,right,1,0.951895952,2018_Aug_01_1305,106
stimuli/night.png,left,0,5,5,5,left,1,0.717878819,2018_Aug_01_1305,106
stimuli/night.png,left,0,6,6,6,right,0,1.118204117,2018_Aug_01_1305,106
stimuli/day.png,right,0,7,7,7,left,0,8.202461958,2018_Aug_01_1305,106
stimuli/day.png,right,0,8,8,8,right,1,0.918391943,2018_Aug_01_1305,106
stimuli/night.png,left,0,9,9,9,left,1,1.352022886,2018_Aug_01_1305,106
stimuli/day.png,right,0,10,10,10,right,1,1.035038948,2018_Aug_01_1305,106
stimuli/night.png,left,0,11,11,11,left,1,1.535066128,2018_Aug_01_1305,106
stimuli/night.png,left,0,12,12,12,right,0,1.501440048,2018_Aug_01_1305,106
stimuli/day.png,right,0,13,13,13,left,0,1.985305786,2018_Aug_01_1305,106
stimuli/night.png,left,0,14,14,14,right,0,0.935028076,2018_Aug_01_1305,106
stimuli/day.png,right,0,15,15,15,left,0,1.418277979,2018_Aug_01_1305,106
stimuli/night.png,left,0,0,0,0,left,1,2.001492977,2018_Aug_01_1328,107
stimuli/day.png,right,0,1,1,1,right,1,1.567636013,2018_Aug_01_1328,107
stimuli/day.png,right,0,2,2,2,left,0,1.751338959,2018_Aug_01_1328,107
stimuli/night.png,left,0,3,3,3,left,1,2.018360853,2018_Aug_01_1328,107
stimuli/day.png,right,0,4,4,4,right,1,1.384910822,2018_Aug_01_1328,107
stimuli/night.png,left,0,5,5,5,left,1,1.318365097,2018_Aug_01_1328,107
stimuli/night.png,left,0,6,6,6,left,1,2.334935904,2018_Aug_01_1328,107
stimuli/day.png,right,0,7,7,7,right,1,5.468966961,2018_Aug_01_1328,107
stimuli/day.png,right,0,8,8,8,right,1,2.384294033,2018_Aug_01_1328,107
stimuli/night.png,left,0,9,9,9,left,1,1.916485071,2018_Aug_01_1328,107
stimuli/day.png,right,0,10,10,10,right,1,1.985353947,2018_Aug_01_1328,107
stimuli/night.png,left,0,11,11,11,left,1,1.384749174,2018_Aug_01_1328,107
stimuli/night.png,left,0,12,12,12,left,1,1.501511097,2018_Aug_01_1328,107
stimuli/day.png,right,0,13,13,13,right,1,3.10165596,2018_Aug_01_1328,107
stimuli/night.png,left,0,14,14,14,left,1,1.668269873,2018_Aug_01_1328,107
stimuli/day.png,right,0,15,15,15,right,1,0.968374014,2018_Aug_01_1328,107
stimuli/night.png,left,0,0,0,0,left,1,2.101469994,2018_Aug_01_1420,108
stimuli/day.png,right,0,1,1,1,right,1,1.867689133,2018_Aug_01_1420,108
stimuli/day.png,right,0,2,2,2,right,1,1.53523612,2018_Aug_01_1420,108
stimuli/night.png,left,0,3,3,3,left,1,1.051738024,2018_Aug_01_1420,108
stimuli/day.png,right,0,4,4,4,right,1,1.468218088,2018_Aug_01_1420,108
stimuli/night.png,left,0,5,5,5,left,1,2.15169692,2018_Aug_01_1420,108
stimuli/night.png,left,0,6,6,6,left,1,1.968392134,2018_Aug_01_1420,108
stimuli/day.png,right,0,7,7,7,right,1,1.185156822,2018_Aug_01_1420,108
stimuli/day.png,right,0,8,8,8,right,1,0.851692915,2018_Aug_01_1420,108
stimuli/night.png,left,0,9,9,9,left,1,1.134850979,2018_Aug_01_1420,108
stimuli/day.png,right,0,10,10,10,right,1,2.151938915,2018_Aug_01_1420,108
stimuli/night.png,left,0,11,11,11,left,1,1.31844902,2018_Aug_01_1420,108
stimuli/night.png,left,0,12,12,12,left,1,1.868148804,2018_Aug_01_1420,108
stimuli/day.png,right,0,13,13,13,right,1,1.235511065,2018_Aug_01_1420,108
stimuli/night.png,left,0,14,14,14,left,1,1.735061169,2018_Aug_01_1420,108
stimuli/day.png,right,0,15,15,15,right,1,1.15170598,2018_Aug_01_1420,108
stimuli/night.png,left,0,0,0,0,left,1,4.217507839,2018_Aug_01_1438,109
stimuli/day.png,right,0,1,1,1,right,1,1.551318884,2018_Aug_01_1438,109
stimuli/day.png,right,0,2,2,2,left,0,1.418442011,2018_Aug_01_1438,109
stimuli/night.png,left,0,3,3,3,left,1,1.434808969,2018_Aug_01_1438,109
stimuli/day.png,right,0,4,4,4,left,0,1.750092983,2018_Aug_01_1438,109
stimuli/night.png,left,0,5,5,5,right,0,1.334924936,2018_Aug_01_1438,109
stimuli/night.png,left,0,6,6,6,right,0,1.868245125,2018_Aug_01_1438,109
stimuli/day.png,right,0,7,7,7,left,0,1.201710939,2018_Aug_01_1438,109
stimuli/day.png,right,0,8,8,8,left,0,1.668527842,2018_Aug_01_1438,109
stimuli/night.png,left,0,9,9,9,right,0,1.618201971,2018_Aug_01_1438,109
stimuli/day.png,right,0,10,10,10,right,1,2.035413027,2018_Aug_01_1438,109
stimuli/night.png,left,0,11,11,11,left,1,1.351452112,2018_Aug_01_1438,109
stimuli/night.png,left,0,12,12,12,left,1,2.168009043,2018_Aug_01_1438,109
stimuli/day.png,right,0,13,13,13,right,1,2.11874485,2018_Aug_01_1438,109
stimuli/night.png,left,0,14,14,14,left,1,2.518912792,2018_Aug_01_1438,109
stimuli/day.png,right,0,15,15,15,right,1,2.502269983,2018_Aug_01_1438,109
stimuli/night.png,left,0,0,0,0,left,1,3.936631918,2018_Aug_03_1142,110
stimuli/day.png,right,0,1,1,1,right,1,2.501363039,2018_Aug_03_1142,110
stimuli/day.png,right,0,2,2,2,right,1,1.568240166,2018_Aug_03_1142,110
stimuli/night.png,left,0,3,3,3,left,1,1.33109498,2018_Aug_03_1142,110
stimuli/day.png,right,0,4,4,4,right,1,3.496073961,2018_Aug_03_1142,110
stimuli/night.png,left,0,5,5,5,left,1,1.714148045,2018_Aug_03_1142,110
stimuli/night.png,left,0,6,6,6,left,1,2.235830069,2018_Aug_03_1142,110
stimuli/day.png,right,0,7,7,7,right,1,1.868088961,2018_Aug_03_1142,110
stimuli/day.png,right,0,8,8,8,right,1,2.402673006,2018_Aug_03_1142,110
stimuli/night.png,left,0,9,9,9,left,1,2.448914051,2018_Aug_03_1142,110
stimuli/day.png,right,0,10,10,10,right,1,10.95240903,2018_Aug_03_1142,110
stimuli/night.png,left,0,11,11,11,left,1,1.763659,2018_Aug_03_1142,110
stimuli/night.png,left,0,12,12,12,left,1,1.447819948,2018_Aug_03_1142,110
stimuli/day.png,right,0,13,13,13,right,1,1.279479027,2018_Aug_03_1142,110
stimuli/night.png,left,0,14,14,14,left,1,2.399729013,2018_Aug_03_1142,110
stimuli/day.png,right,0,15,15,15,right,1,1.717873096,2018_Aug_03_1142,110
stimuli/night.png,left,0,0,0,0,right,0,3.751706839,2018_Aug_03_1209,111
stimuli/day.png,right,0,1,1,1,left,0,1.301244974,2018_Aug_03_1209,111
stimuli/day.png,right,0,2,2,2,left,0,3.569126129,2018_Aug_03_1209,111
stimuli/night.png,left,0,3,3,3,left,1,1.90170908,2018_Aug_03_1209,111
stimuli/day.png,right,0,4,4,4,right,1,1.818322897,2018_Aug_03_1209,111
stimuli/night.png,left,0,5,5,5,left,1,0.734493971,2018_Aug_03_1209,111
stimuli/night.png,left,0,6,6,6,right,0,2.050279856,2018_Aug_03_1209,111
stimuli/day.png,right,0,7,7,7,right,1,3.735404015,2018_Aug_03_1209,111
stimuli/day.png,right,0,8,8,8,left,0,1.233535051,2018_Aug_03_1209,111
stimuli/night.png,left,0,9,9,9,right,0,1.351828098,2018_Aug_03_1209,111
stimuli/day.png,right,0,10,10,10,left,0,1.168342113,2018_Aug_03_1209,111
stimuli/night.png,left,0,11,11,11,right,0,1.418211937,2018_Aug_03_1209,111
stimuli/night.png,left,0,12,12,12,right,0,7.76757884,2018_Aug_03_1209,111
stimuli/day.png,right,0,13,13,13,left,0,1.368628025,2018_Aug_03_1209,111
stimuli/night.png,left,0,14,14,14,right,0,2.251713037,2018_Aug_03_1209,111
stimuli/day.png,right,0,15,15,15,left,0,1.301897049,2018_Aug_03_1209,111
stimuli/night.png,left,0,0,0,0,NA,NA,NA,2018_Aug_07_1040,113
stimuli/day.png,right,0,1,1,1,left,0,2.05143404,2018_Aug_07_1040,113
stimuli/day.png,right,0,2,2,2,left,0,1.535094976,2018_Aug_07_1040,113
stimuli/night.png,left,0,3,3,3,left,1,3.802063942,2018_Aug_07_1040,113
stimuli/day.png,right,0,4,4,4,right,1,2.902307034,2018_Aug_07_1040,113
stimuli/night.png,left,0,5,5,5,left,1,3.650492191,2018_Aug_07_1040,113
stimuli/night.png,left,0,6,6,6,left,1,2.368310928,2018_Aug_07_1040,113
